# Results on Tuesday August 23 2016 18:34:46 UTC.
# USER AGENT: Mozilla/5.0 (Macintosh; Intel Mac OS X 10_11_6) AppleWebKit/537.36 (KHTML, like Gecko) Chrome/51.0.2704.103 Safari/537.36
# Design number was non-random = 2
#
# Columns below this comment are as follows:
# 1. Time results were received.
# 2. MD5 hash of participant's IP address.
# 3. Controller name.
# 4. Item number.
# 5. Element number.
# 6. Type.
# 7. Group.
# 8. Field name.
# 9. Field value.
1471977286,ffccb47e38f41cb8b406892f4c6873fb,Form,0,0,consent,NULL,consent,yes
1471977286,ffccb47e38f41cb8b406892f4c6873fb,Form,2,0,background,NULL,othergender,other gender
1471977286,ffccb47e38f41cb8b406892f4c6873fb,Form,2,0,background,NULL,age,age
1471977286,ffccb47e38f41cb8b406892f4c6873fb,Form,2,0,background,NULL,natlang,native language
1471977286,ffccb47e38f41cb8b406892f4c6873fb,Form,2,0,background,NULL,state,Minnesota
1471977286,ffccb47e38f41cb8b406892f4c6873fb,Form,2,0,background,NULL,parentlang,parent's language
1471977286,ffccb47e38f41cb8b406892f4c6873fb,Form,2,0,background,NULL,domlang,dominant language
1471977286,ffccb47e38f41cb8b406892f4c6873fb,Form,2,0,background,NULL,otherlang,other language
1471977286,ffccb47e38f41cb8b406892f4c6873fb,Form,2,0,background,NULL,gender,male
1471977286,ffccb47e38f41cb8b406892f4c6873fb,Form,4,0,intro,NULL,advancekey,space
1471977286,ffccb47e38f41cb8b406892f4c6873fb,Form,4,0,intro,NULL,read,silent
1471977286,ffccb47e38f41cb8b406892f4c6873fb,Form,4,0,intro,NULL,screen,no
1471977286,ffccb47e38f41cb8b406892f4c6873fb,Form,5,0,intro,NULL,unacceptableresponse,1
1471977286,ffccb47e38f41cb8b406892f4c6873fb,Form,5,0,intro,NULL,scale,all
1471977286,ffccb47e38f41cb8b406892f4c6873fb,Form,5,0,intro,NULL,hands,yes
1471977286,ffccb47e38f41cb8b406892f4c6873fb,Form,5,0,intro,NULL,window,maximized
# Columns below this comment are as follows:
# 1. Time results were received.
# 2. MD5 hash of participant's IP address.
# 3. Controller name.
# 4. Item number.
# 5. Element number.
# 6. Type.
# 7. Group.
# 8. Word number.
# 9. Word.
# 10. Reading time.
# 11. Newline?
# 12. Sentence (or sentence MD5).
1471977286,ffccb47e38f41cb8b406892f4c6873fb,DashedSentence,10,0,Practice,NULL,1,This is,349,False,This is just a practice sentence to get you used to the method of presentation.
1471977286,ffccb47e38f41cb8b406892f4c6873fb,DashedSentence,10,0,Practice,NULL,2,just a practice sentence,146,False,This is just a practice sentence to get you used to the method of presentation.
1471977286,ffccb47e38f41cb8b406892f4c6873fb,DashedSentence,10,0,Practice,NULL,3,to get you used,135,False,This is just a practice sentence to get you used to the method of presentation.
1471977286,ffccb47e38f41cb8b406892f4c6873fb,DashedSentence,10,0,Practice,NULL,4,to the method,181,False,This is just a practice sentence to get you used to the method of presentation.
1471977286,ffccb47e38f41cb8b406892f4c6873fb,DashedSentence,10,0,Practice,NULL,5,of presentation.,281,False,This is just a practice sentence to get you used to the method of presentation.
1471977286,ffccb47e38f41cb8b406892f4c6873fb,DashedSentence,11,0,Practice,NULL,1,This is,305,False,This is another practice sentence which is longer and a little more complicated than the one you just read.
1471977286,ffccb47e38f41cb8b406892f4c6873fb,DashedSentence,11,0,Practice,NULL,2,another practice sentence,180,False,This is another practice sentence which is longer and a little more complicated than the one you just read.
1471977286,ffccb47e38f41cb8b406892f4c6873fb,DashedSentence,11,0,Practice,NULL,3,which is longer,179,False,This is another practice sentence which is longer and a little more complicated than the one you just read.
1471977286,ffccb47e38f41cb8b406892f4c6873fb,DashedSentence,11,0,Practice,NULL,4,and a little more complicated,147,False,This is another practice sentence which is longer and a little more complicated than the one you just read.
1471977286,ffccb47e38f41cb8b406892f4c6873fb,DashedSentence,11,0,Practice,NULL,5,than the one,169,False,This is another practice sentence which is longer and a little more complicated than the one you just read.
1471977286,ffccb47e38f41cb8b406892f4c6873fb,DashedSentence,11,0,Practice,NULL,6,you just read.,157,False,This is another practice sentence which is longer and a little more complicated than the one you just read.
1471977286,ffccb47e38f41cb8b406892f4c6873fb,DashedSentence,13,0,Practice,NULL,1,Elias,214,False,Elias told Martha that the attractive lifeguard on the pier who is dating Tracy's sister saved a little boy from being swept out to sea by a rip-tide yesterday.
1471977286,ffccb47e38f41cb8b406892f4c6873fb,DashedSentence,13,0,Practice,NULL,2,told Martha,193,False,Elias told Martha that the attractive lifeguard on the pier who is dating Tracy's sister saved a little boy from being swept out to sea by a rip-tide yesterday.
1471977286,ffccb47e38f41cb8b406892f4c6873fb,DashedSentence,13,0,Practice,NULL,3,that the attractive lifeguard,246,False,Elias told Martha that the attractive lifeguard on the pier who is dating Tracy's sister saved a little boy from being swept out to sea by a rip-tide yesterday.
1471977286,ffccb47e38f41cb8b406892f4c6873fb,DashedSentence,13,0,Practice,NULL,4,on the pier,224,False,Elias told Martha that the attractive lifeguard on the pier who is dating Tracy's sister saved a little boy from being swept out to sea by a rip-tide yesterday.
1471977286,ffccb47e38f41cb8b406892f4c6873fb,DashedSentence,13,0,Practice,NULL,5,who is dating,238,False,Elias told Martha that the attractive lifeguard on the pier who is dating Tracy's sister saved a little boy from being swept out to sea by a rip-tide yesterday.
1471977286,ffccb47e38f41cb8b406892f4c6873fb,DashedSentence,13,0,Practice,NULL,6,Tracy's sister,235,False,Elias told Martha that the attractive lifeguard on the pier who is dating Tracy's sister saved a little boy from being swept out to sea by a rip-tide yesterday.
1471977286,ffccb47e38f41cb8b406892f4c6873fb,DashedSentence,13,0,Practice,NULL,7,saved,226,False,Elias told Martha that the attractive lifeguard on the pier who is dating Tracy's sister saved a little boy from being swept out to sea by a rip-tide yesterday.
1471977286,ffccb47e38f41cb8b406892f4c6873fb,DashedSentence,13,0,Practice,NULL,8,a little boy,236,False,Elias told Martha that the attractive lifeguard on the pier who is dating Tracy's sister saved a little boy from being swept out to sea by a rip-tide yesterday.
1471977286,ffccb47e38f41cb8b406892f4c6873fb,DashedSentence,13,0,Practice,NULL,9,from being,237,False,Elias told Martha that the attractive lifeguard on the pier who is dating Tracy's sister saved a little boy from being swept out to sea by a rip-tide yesterday.
1471977286,ffccb47e38f41cb8b406892f4c6873fb,DashedSentence,13,0,Practice,NULL,10,swept out to sea,224,False,Elias told Martha that the attractive lifeguard on the pier who is dating Tracy's sister saved a little boy from being swept out to sea by a rip-tide yesterday.
1471977286,ffccb47e38f41cb8b406892f4c6873fb,DashedSentence,13,0,Practice,NULL,11,by a rip-tide yesterday.,236,False,Elias told Martha that the attractive lifeguard on the pier who is dating Tracy's sister saved a little boy from being swept out to sea by a rip-tide yesterday.
# The lines below this comment are in groups of 2.
# The formats of the lines in each of these groups are as follows:
#
# Line 1:
#     Col. 1: Time results were received.
#     Col. 2: MD5 hash of participant's IP address.
#     Col. 3: Controller name.
#     Col. 4: Item number.
#     Col. 5: Element number.
#     Col. 6: Type.
#     Col. 7: Group.
#     Col. 8: Question (NULL if none).
#     Col. 9: Answer.
#     Col. 10: Whether or not answer was correct (NULL if N/A).
#     Col. 11: Time taken to answer.
# Line 2:
#     Col. 1: Time results were received.
#     Col. 2: MD5 hash of participant's IP address.
#     Col. 3: Controller name.
#     Col. 4: Item number.
#     Col. 5: Element number.
#     Col. 6: Type.
#     Col. 7: Group.
#     Col. 8: Word number.
#     Col. 9: Word.
#     Col. 10: Reading time.
#     Col. 11: Newline?
#     Col. 12: Sentence (or sentence MD5).
1471977286,ffccb47e38f41cb8b406892f4c6873fb,Question,14,0,Practice,NULL,How acceptable did you find the sentence?,4,NULL,1277
1471977286,ffccb47e38f41cb8b406892f4c6873fb,DashedSentence,16,0,Practice,NULL,1,The pop star,179,False,The pop star sang myself hoarse at the concert last night.
# Columns below this comment are as follows:
# 1. Time results were received.
# 2. MD5 hash of participant's IP address.
# 3. Controller name.
# 4. Item number.
# 5. Element number.
# 6. Type.
# 7. Group.
# 8. Word number.
# 9. Word.
# 10. Reading time.
# 11. Newline?
# 12. Sentence (or sentence MD5).
1471977286,ffccb47e38f41cb8b406892f4c6873fb,DashedSentence,16,0,Practice,NULL,2,sang,170,False,The pop star sang myself hoarse at the concert last night.
1471977286,ffccb47e38f41cb8b406892f4c6873fb,DashedSentence,16,0,Practice,NULL,3,myself hoarse,157,False,The pop star sang myself hoarse at the concert last night.
1471977286,ffccb47e38f41cb8b406892f4c6873fb,DashedSentence,16,0,Practice,NULL,4,at the concert,135,False,The pop star sang myself hoarse at the concert last night.
1471977286,ffccb47e38f41cb8b406892f4c6873fb,DashedSentence,16,0,Practice,NULL,5,last night.,90,False,The pop star sang myself hoarse at the concert last night.
# The lines below this comment are in groups of 2.
# The formats of the lines in each of these groups are as follows:
#
# Line 1:
#     Col. 1: Time results were received.
#     Col. 2: MD5 hash of participant's IP address.
#     Col. 3: Controller name.
#     Col. 4: Item number.
#     Col. 5: Element number.
#     Col. 6: Type.
#     Col. 7: Group.
#     Col. 8: Question (NULL if none).
#     Col. 9: Answer.
#     Col. 10: Whether or not answer was correct (NULL if N/A).
#     Col. 11: Time taken to answer.
# Line 2:
#     Col. 1: Time results were received.
#     Col. 2: MD5 hash of participant's IP address.
#     Col. 3: Controller name.
#     Col. 4: Item number.
#     Col. 5: Element number.
#     Col. 6: Type.
#     Col. 7: Group.
#     Col. 8: Word number.
#     Col. 9: Word.
#     Col. 10: Reading time.
#     Col. 11: Newline?
#     Col. 12: Sentence (or sentence MD5).
1471977286,ffccb47e38f41cb8b406892f4c6873fb,Question,17,0,Practice,NULL,How acceptable did you find the sentence?,5,NULL,470
1471977286,ffccb47e38f41cb8b406892f4c6873fb,DashedSentence,19,0,Practice,NULL,1,The kids,136,False,The kids were eating yesterday the string cheese
# Columns below this comment are as follows:
# 1. Time results were received.
# 2. MD5 hash of participant's IP address.
# 3. Controller name.
# 4. Item number.
# 5. Element number.
# 6. Type.
# 7. Group.
# 8. Word number.
# 9. Word.
# 10. Reading time.
# 11. Newline?
# 12. Sentence (or sentence MD5).
1471977286,ffccb47e38f41cb8b406892f4c6873fb,DashedSentence,19,0,Practice,NULL,2,were eating,500,False,The kids were eating yesterday the string cheese
1471977286,ffccb47e38f41cb8b406892f4c6873fb,DashedSentence,19,0,Practice,NULL,3,yesterday,84,False,The kids were eating yesterday the string cheese
1471977286,ffccb47e38f41cb8b406892f4c6873fb,DashedSentence,19,0,Practice,NULL,4,the string cheese,84,False,The kids were eating yesterday the string cheese
# The lines below this comment are in groups of 2.
# The formats of the lines in each of these groups are as follows:
#
# Line 1:
#     Col. 1: Time results were received.
#     Col. 2: MD5 hash of participant's IP address.
#     Col. 3: Controller name.
#     Col. 4: Item number.
#     Col. 5: Element number.
#     Col. 6: Type.
#     Col. 7: Group.
#     Col. 8: Question (NULL if none).
#     Col. 9: Answer.
#     Col. 10: Whether or not answer was correct (NULL if N/A).
#     Col. 11: Time taken to answer.
# Line 2:
#     Col. 1: Time results were received.
#     Col. 2: MD5 hash of participant's IP address.
#     Col. 3: Controller name.
#     Col. 4: Item number.
#     Col. 5: Element number.
#     Col. 6: Type.
#     Col. 7: Group.
#     Col. 8: Word number.
#     Col. 9: Word.
#     Col. 10: Reading time.
#     Col. 11: Newline?
#     Col. 12: Sentence (or sentence MD5).
1471977286,ffccb47e38f41cb8b406892f4c6873fb,Question,20,0,Practice,NULL,How acceptable did you find the sentence?,1,NULL,306
1471977286,ffccb47e38f41cb8b406892f4c6873fb,DashedSentence,22,0,Practice,NULL,1,The plumber,84,False,The plumber working in the bathroom cursed himself for forgetting his wrench.
# Columns below this comment are as follows:
# 1. Time results were received.
# 2. MD5 hash of participant's IP address.
# 3. Controller name.
# 4. Item number.
# 5. Element number.
# 6. Type.
# 7. Group.
# 8. Word number.
# 9. Word.
# 10. Reading time.
# 11. Newline?
# 12. Sentence (or sentence MD5).
1471977286,ffccb47e38f41cb8b406892f4c6873fb,DashedSentence,22,0,Practice,NULL,2,working in the bathroom,84,False,The plumber working in the bathroom cursed himself for forgetting his wrench.
1471977286,ffccb47e38f41cb8b406892f4c6873fb,DashedSentence,22,0,Practice,NULL,3,cursed himself,85,False,The plumber working in the bathroom cursed himself for forgetting his wrench.
1471977286,ffccb47e38f41cb8b406892f4c6873fb,DashedSentence,22,0,Practice,NULL,4,for forgetting,84,False,The plumber working in the bathroom cursed himself for forgetting his wrench.
1471977286,ffccb47e38f41cb8b406892f4c6873fb,DashedSentence,22,0,Practice,NULL,5,his wrench.,83,False,The plumber working in the bathroom cursed himself for forgetting his wrench.
# The lines below this comment are in groups of 2.
# The formats of the lines in each of these groups are as follows:
#
# Line 1:
#     Col. 1: Time results were received.
#     Col. 2: MD5 hash of participant's IP address.
#     Col. 3: Controller name.
#     Col. 4: Item number.
#     Col. 5: Element number.
#     Col. 6: Type.
#     Col. 7: Group.
#     Col. 8: Question (NULL if none).
#     Col. 9: Answer.
#     Col. 10: Whether or not answer was correct (NULL if N/A).
#     Col. 11: Time taken to answer.
# Line 2:
#     Col. 1: Time results were received.
#     Col. 2: MD5 hash of participant's IP address.
#     Col. 3: Controller name.
#     Col. 4: Item number.
#     Col. 5: Element number.
#     Col. 6: Type.
#     Col. 7: Group.
#     Col. 8: Word number.
#     Col. 9: Word.
#     Col. 10: Reading time.
#     Col. 11: Newline?
#     Col. 12: Sentence (or sentence MD5).
1471977286,ffccb47e38f41cb8b406892f4c6873fb,Question,23,0,Practice,NULL,How acceptable did you find the sentence?,5,NULL,920
1471977286,ffccb47e38f41cb8b406892f4c6873fb,DashedSentence,476,0,filler,105,1,The activists,499,False,The activists apparently brought any signs for others to use at the rally for environmental justice.
# Columns below this comment are as follows:
# 1. Time results were received.
# 2. MD5 hash of participant's IP address.
# 3. Controller name.
# 4. Item number.
# 5. Element number.
# 6. Type.
# 7. Group.
# 8. Word number.
# 9. Word.
# 10. Reading time.
# 11. Newline?
# 12. Sentence (or sentence MD5).
1471977286,ffccb47e38f41cb8b406892f4c6873fb,DashedSentence,476,0,filler,105,2,apparently brought any signs,84,False,The activists apparently brought any signs for others to use at the rally for environmental justice.
1471977286,ffccb47e38f41cb8b406892f4c6873fb,DashedSentence,476,0,filler,105,3,for others to use,85,False,The activists apparently brought any signs for others to use at the rally for environmental justice.
1471977286,ffccb47e38f41cb8b406892f4c6873fb,DashedSentence,476,0,filler,105,4,at the rally,84,False,The activists apparently brought any signs for others to use at the rally for environmental justice.
1471977286,ffccb47e38f41cb8b406892f4c6873fb,DashedSentence,476,0,filler,105,5,for environmental justice.,84,False,The activists apparently brought any signs for others to use at the rally for environmental justice.
# The lines below this comment are in groups of 2.
# The formats of the lines in each of these groups are as follows:
#
# Line 1:
#     Col. 1: Time results were received.
#     Col. 2: MD5 hash of participant's IP address.
#     Col. 3: Controller name.
#     Col. 4: Item number.
#     Col. 5: Element number.
#     Col. 6: Type.
#     Col. 7: Group.
#     Col. 8: Question (NULL if none).
#     Col. 9: Answer.
#     Col. 10: Whether or not answer was correct (NULL if N/A).
#     Col. 11: Time taken to answer.
# Line 2:
#     Col. 1: Time results were received.
#     Col. 2: MD5 hash of participant's IP address.
#     Col. 3: Controller name.
#     Col. 4: Item number.
#     Col. 5: Element number.
#     Col. 6: Type.
#     Col. 7: Group.
#     Col. 8: Word number.
#     Col. 9: Word.
#     Col. 10: Reading time.
#     Col. 11: Newline?
#     Col. 12: Sentence (or sentence MD5).
1471977286,ffccb47e38f41cb8b406892f4c6873fb,Question,476,1,filler,105,How acceptable did you find the sentence?,5,NULL,960
1471977286,ffccb47e38f41cb8b406892f4c6873fb,DashedSentence,303,0,cond-D,34,1,The car,85,False,The car that pulled up next to the girls apparently are looking for the road that goes towards the next town.
# Columns below this comment are as follows:
# 1. Time results were received.
# 2. MD5 hash of participant's IP address.
# 3. Controller name.
# 4. Item number.
# 5. Element number.
# 6. Type.
# 7. Group.
# 8. Word number.
# 9. Word.
# 10. Reading time.
# 11. Newline?
# 12. Sentence (or sentence MD5).
1471977286,ffccb47e38f41cb8b406892f4c6873fb,DashedSentence,303,0,cond-D,34,2,that pulled up next to the girls,84,False,The car that pulled up next to the girls apparently are looking for the road that goes towards the next town.
1471977286,ffccb47e38f41cb8b406892f4c6873fb,DashedSentence,303,0,cond-D,34,3,apparently are looking,83,False,The car that pulled up next to the girls apparently are looking for the road that goes towards the next town.
1471977286,ffccb47e38f41cb8b406892f4c6873fb,DashedSentence,303,0,cond-D,34,4,for the road,85,False,The car that pulled up next to the girls apparently are looking for the road that goes towards the next town.
1471977286,ffccb47e38f41cb8b406892f4c6873fb,DashedSentence,303,0,cond-D,34,5,that goes towards the next town.,84,False,The car that pulled up next to the girls apparently are looking for the road that goes towards the next town.
# The lines below this comment are in groups of 2.
# The formats of the lines in each of these groups are as follows:
#
# Line 1:
#     Col. 1: Time results were received.
#     Col. 2: MD5 hash of participant's IP address.
#     Col. 3: Controller name.
#     Col. 4: Item number.
#     Col. 5: Element number.
#     Col. 6: Type.
#     Col. 7: Group.
#     Col. 8: Question (NULL if none).
#     Col. 9: Answer.
#     Col. 10: Whether or not answer was correct (NULL if N/A).
#     Col. 11: Time taken to answer.
# Line 2:
#     Col. 1: Time results were received.
#     Col. 2: MD5 hash of participant's IP address.
#     Col. 3: Controller name.
#     Col. 4: Item number.
#     Col. 5: Element number.
#     Col. 6: Type.
#     Col. 7: Group.
#     Col. 8: Word number.
#     Col. 9: Word.
#     Col. 10: Reading time.
#     Col. 11: Newline?
#     Col. 12: Sentence (or sentence MD5).
1471977286,ffccb47e38f41cb8b406892f4c6873fb,Question,303,1,cond-D,34,How acceptable did you find the sentence?,1,NULL,402
1471977286,ffccb47e38f41cb8b406892f4c6873fb,DashedSentence,427,0,filler,56,1,The bridges,203,False,The bridges that led to the island recently have collapsed due to disrepair from years of neglect.
# Columns below this comment are as follows:
# 1. Time results were received.
# 2. MD5 hash of participant's IP address.
# 3. Controller name.
# 4. Item number.
# 5. Element number.
# 6. Type.
# 7. Group.
# 8. Word number.
# 9. Word.
# 10. Reading time.
# 11. Newline?
# 12. Sentence (or sentence MD5).
1471977286,ffccb47e38f41cb8b406892f4c6873fb,DashedSentence,427,0,filler,56,2,that led to the island,168,False,The bridges that led to the island recently have collapsed due to disrepair from years of neglect.
1471977286,ffccb47e38f41cb8b406892f4c6873fb,DashedSentence,427,0,filler,56,3,recently have collapsed,125,False,The bridges that led to the island recently have collapsed due to disrepair from years of neglect.
1471977286,ffccb47e38f41cb8b406892f4c6873fb,DashedSentence,427,0,filler,56,4,due to disrepair,157,False,The bridges that led to the island recently have collapsed due to disrepair from years of neglect.
1471977286,ffccb47e38f41cb8b406892f4c6873fb,DashedSentence,427,0,filler,56,5,from years of neglect.,135,False,The bridges that led to the island recently have collapsed due to disrepair from years of neglect.
# The lines below this comment are in groups of 2.
# The formats of the lines in each of these groups are as follows:
#
# Line 1:
#     Col. 1: Time results were received.
#     Col. 2: MD5 hash of participant's IP address.
#     Col. 3: Controller name.
#     Col. 4: Item number.
#     Col. 5: Element number.
#     Col. 6: Type.
#     Col. 7: Group.
#     Col. 8: Question (NULL if none).
#     Col. 9: Answer.
#     Col. 10: Whether or not answer was correct (NULL if N/A).
#     Col. 11: Time taken to answer.
# Line 2:
#     Col. 1: Time results were received.
#     Col. 2: MD5 hash of participant's IP address.
#     Col. 3: Controller name.
#     Col. 4: Item number.
#     Col. 5: Element number.
#     Col. 6: Type.
#     Col. 7: Group.
#     Col. 8: Word number.
#     Col. 9: Word.
#     Col. 10: Reading time.
#     Col. 11: Newline?
#     Col. 12: Sentence (or sentence MD5).
1471977286,ffccb47e38f41cb8b406892f4c6873fb,Question,427,1,filler,56,How acceptable did you find the sentence?,4,NULL,554
1471977286,ffccb47e38f41cb8b406892f4c6873fb,DashedSentence,102,0,cond-C,9,1,The letter,439,False,The letter that arrived for the prosecutor evidently were used in the trial of the investment banker.
# Columns below this comment are as follows:
# 1. Time results were received.
# 2. MD5 hash of participant's IP address.
# 3. Controller name.
# 4. Item number.
# 5. Element number.
# 6. Type.
# 7. Group.
# 8. Word number.
# 9. Word.
# 10. Reading time.
# 11. Newline?
# 12. Sentence (or sentence MD5).
1471977286,ffccb47e38f41cb8b406892f4c6873fb,DashedSentence,102,0,cond-C,9,2,that arrived for the prosecutor,596,False,The letter that arrived for the prosecutor evidently were used in the trial of the investment banker.
1471977286,ffccb47e38f41cb8b406892f4c6873fb,DashedSentence,102,0,cond-C,9,3,evidently were used,619,False,The letter that arrived for the prosecutor evidently were used in the trial of the investment banker.
1471977286,ffccb47e38f41cb8b406892f4c6873fb,DashedSentence,102,0,cond-C,9,4,in the trial,518,False,The letter that arrived for the prosecutor evidently were used in the trial of the investment banker.
1471977286,ffccb47e38f41cb8b406892f4c6873fb,DashedSentence,102,0,cond-C,9,5,of the investment banker.,562,False,The letter that arrived for the prosecutor evidently were used in the trial of the investment banker.
# The lines below this comment are in groups of 2.
# The formats of the lines in each of these groups are as follows:
#
# Line 1:
#     Col. 1: Time results were received.
#     Col. 2: MD5 hash of participant's IP address.
#     Col. 3: Controller name.
#     Col. 4: Item number.
#     Col. 5: Element number.
#     Col. 6: Type.
#     Col. 7: Group.
#     Col. 8: Question (NULL if none).
#     Col. 9: Answer.
#     Col. 10: Whether or not answer was correct (NULL if N/A).
#     Col. 11: Time taken to answer.
# Line 2:
#     Col. 1: Time results were received.
#     Col. 2: MD5 hash of participant's IP address.
#     Col. 3: Controller name.
#     Col. 4: Item number.
#     Col. 5: Element number.
#     Col. 6: Type.
#     Col. 7: Group.
#     Col. 8: Word number.
#     Col. 9: Word.
#     Col. 10: Reading time.
#     Col. 11: Newline?
#     Col. 12: Sentence (or sentence MD5).
1471977286,ffccb47e38f41cb8b406892f4c6873fb,Question,102,1,cond-C,9,How acceptable did you find the sentence?,4,NULL,592
1471977286,ffccb47e38f41cb8b406892f4c6873fb,DashedSentence,489,0,filler,118,1,The chairman,551,False,The chairman at the meeting that never seemed to end apparently entertained herself by playing cell phone games.
# Columns below this comment are as follows:
# 1. Time results were received.
# 2. MD5 hash of participant's IP address.
# 3. Controller name.
# 4. Item number.
# 5. Element number.
# 6. Type.
# 7. Group.
# 8. Word number.
# 9. Word.
# 10. Reading time.
# 11. Newline?
# 12. Sentence (or sentence MD5).
1471977286,ffccb47e38f41cb8b406892f4c6873fb,DashedSentence,489,0,filler,118,2,at the meeting,607,False,The chairman at the meeting that never seemed to end apparently entertained herself by playing cell phone games.
1471977286,ffccb47e38f41cb8b406892f4c6873fb,DashedSentence,489,0,filler,118,3,that never seemed to end,563,False,The chairman at the meeting that never seemed to end apparently entertained herself by playing cell phone games.
1471977286,ffccb47e38f41cb8b406892f4c6873fb,DashedSentence,489,0,filler,118,4,apparently entertained herself,1226,False,The chairman at the meeting that never seemed to end apparently entertained herself by playing cell phone games.
1471977286,ffccb47e38f41cb8b406892f4c6873fb,DashedSentence,489,0,filler,118,5,by playing cell phone games.,708,False,The chairman at the meeting that never seemed to end apparently entertained herself by playing cell phone games.
# The lines below this comment are in groups of 2.
# The formats of the lines in each of these groups are as follows:
#
# Line 1:
#     Col. 1: Time results were received.
#     Col. 2: MD5 hash of participant's IP address.
#     Col. 3: Controller name.
#     Col. 4: Item number.
#     Col. 5: Element number.
#     Col. 6: Type.
#     Col. 7: Group.
#     Col. 8: Question (NULL if none).
#     Col. 9: Answer.
#     Col. 10: Whether or not answer was correct (NULL if N/A).
#     Col. 11: Time taken to answer.
# Line 2:
#     Col. 1: Time results were received.
#     Col. 2: MD5 hash of participant's IP address.
#     Col. 3: Controller name.
#     Col. 4: Item number.
#     Col. 5: Element number.
#     Col. 6: Type.
#     Col. 7: Group.
#     Col. 8: Word number.
#     Col. 9: Word.
#     Col. 10: Reading time.
#     Col. 11: Newline?
#     Col. 12: Sentence (or sentence MD5).
1471977286,ffccb47e38f41cb8b406892f4c6873fb,Question,489,1,filler,118,How acceptable did you find the sentence?,1,NULL,481
1471977286,ffccb47e38f41cb8b406892f4c6873fb,DashedSentence,469,0,filler,98,1,The lampshade,248,False,The lampshade that had been purchased from Ikea supposedly was anywhere in the closet.
# Columns below this comment are as follows:
# 1. Time results were received.
# 2. MD5 hash of participant's IP address.
# 3. Controller name.
# 4. Item number.
# 5. Element number.
# 6. Type.
# 7. Group.
# 8. Word number.
# 9. Word.
# 10. Reading time.
# 11. Newline?
# 12. Sentence (or sentence MD5).
1471977286,ffccb47e38f41cb8b406892f4c6873fb,DashedSentence,469,0,filler,98,2,that had been purchased,202,False,The lampshade that had been purchased from Ikea supposedly was anywhere in the closet.
1471977286,ffccb47e38f41cb8b406892f4c6873fb,DashedSentence,469,0,filler,98,3,from Ikea,180,False,The lampshade that had been purchased from Ikea supposedly was anywhere in the closet.
1471977286,ffccb47e38f41cb8b406892f4c6873fb,DashedSentence,469,0,filler,98,4,supposedly was anywhere,168,False,The lampshade that had been purchased from Ikea supposedly was anywhere in the closet.
1471977286,ffccb47e38f41cb8b406892f4c6873fb,DashedSentence,469,0,filler,98,5,in the closet.,502,False,The lampshade that had been purchased from Ikea supposedly was anywhere in the closet.
# The lines below this comment are in groups of 2.
# The formats of the lines in each of these groups are as follows:
#
# Line 1:
#     Col. 1: Time results were received.
#     Col. 2: MD5 hash of participant's IP address.
#     Col. 3: Controller name.
#     Col. 4: Item number.
#     Col. 5: Element number.
#     Col. 6: Type.
#     Col. 7: Group.
#     Col. 8: Question (NULL if none).
#     Col. 9: Answer.
#     Col. 10: Whether or not answer was correct (NULL if N/A).
#     Col. 11: Time taken to answer.
# Line 2:
#     Col. 1: Time results were received.
#     Col. 2: MD5 hash of participant's IP address.
#     Col. 3: Controller name.
#     Col. 4: Item number.
#     Col. 5: Element number.
#     Col. 6: Type.
#     Col. 7: Group.
#     Col. 8: Word number.
#     Col. 9: Word.
#     Col. 10: Reading time.
#     Col. 11: Newline?
#     Col. 12: Sentence (or sentence MD5).
1471977286,ffccb47e38f41cb8b406892f4c6873fb,Question,469,1,filler,98,How acceptable did you find the sentence?,6,NULL,801
1471977286,ffccb47e38f41cb8b406892f4c6873fb,DashedSentence,340,0,cond-A,39,1,The skateboarder,85,False,The skateboarder that relaxed on the ramp finally is going to the competition after years of hard work.
# Columns below this comment are as follows:
# 1. Time results were received.
# 2. MD5 hash of participant's IP address.
# 3. Controller name.
# 4. Item number.
# 5. Element number.
# 6. Type.
# 7. Group.
# 8. Word number.
# 9. Word.
# 10. Reading time.
# 11. Newline?
# 12. Sentence (or sentence MD5).
1471977286,ffccb47e38f41cb8b406892f4c6873fb,DashedSentence,340,0,cond-A,39,2,that relaxed on the ramp,84,False,The skateboarder that relaxed on the ramp finally is going to the competition after years of hard work.
1471977286,ffccb47e38f41cb8b406892f4c6873fb,DashedSentence,340,0,cond-A,39,3,finally is going,84,False,The skateboarder that relaxed on the ramp finally is going to the competition after years of hard work.
1471977286,ffccb47e38f41cb8b406892f4c6873fb,DashedSentence,340,0,cond-A,39,4,to the competition,85,False,The skateboarder that relaxed on the ramp finally is going to the competition after years of hard work.
1471977286,ffccb47e38f41cb8b406892f4c6873fb,DashedSentence,340,0,cond-A,39,5,after years of hard work.,83,False,The skateboarder that relaxed on the ramp finally is going to the competition after years of hard work.
# The lines below this comment are in groups of 2.
# The formats of the lines in each of these groups are as follows:
#
# Line 1:
#     Col. 1: Time results were received.
#     Col. 2: MD5 hash of participant's IP address.
#     Col. 3: Controller name.
#     Col. 4: Item number.
#     Col. 5: Element number.
#     Col. 6: Type.
#     Col. 7: Group.
#     Col. 8: Question (NULL if none).
#     Col. 9: Answer.
#     Col. 10: Whether or not answer was correct (NULL if N/A).
#     Col. 11: Time taken to answer.
# Line 2:
#     Col. 1: Time results were received.
#     Col. 2: MD5 hash of participant's IP address.
#     Col. 3: Controller name.
#     Col. 4: Item number.
#     Col. 5: Element number.
#     Col. 6: Type.
#     Col. 7: Group.
#     Col. 8: Word number.
#     Col. 9: Word.
#     Col. 10: Reading time.
#     Col. 11: Newline?
#     Col. 12: Sentence (or sentence MD5).
1471977286,ffccb47e38f41cb8b406892f4c6873fb,Question,340,1,cond-A,39,How acceptable did you find the sentence?,2,NULL,301
1471977286,ffccb47e38f41cb8b406892f4c6873fb,DashedSentence,454,0,filler,83,1,The housekeeper,84,False,The housekeeper at the mansion that had recently been renovated now had a whole bedroom to herself.
# Columns below this comment are as follows:
# 1. Time results were received.
# 2. MD5 hash of participant's IP address.
# 3. Controller name.
# 4. Item number.
# 5. Element number.
# 6. Type.
# 7. Group.
# 8. Word number.
# 9. Word.
# 10. Reading time.
# 11. Newline?
# 12. Sentence (or sentence MD5).
1471977286,ffccb47e38f41cb8b406892f4c6873fb,DashedSentence,454,0,filler,83,2,at the mansion,84,False,The housekeeper at the mansion that had recently been renovated now had a whole bedroom to herself.
1471977286,ffccb47e38f41cb8b406892f4c6873fb,DashedSentence,454,0,filler,83,3,that had recently been renovated,84,False,The housekeeper at the mansion that had recently been renovated now had a whole bedroom to herself.
1471977286,ffccb47e38f41cb8b406892f4c6873fb,DashedSentence,454,0,filler,83,4,now had a whole bedroom,84,False,The housekeeper at the mansion that had recently been renovated now had a whole bedroom to herself.
1471977286,ffccb47e38f41cb8b406892f4c6873fb,DashedSentence,454,0,filler,83,5,to herself.,85,False,The housekeeper at the mansion that had recently been renovated now had a whole bedroom to herself.
# The lines below this comment are in groups of 2.
# The formats of the lines in each of these groups are as follows:
#
# Line 1:
#     Col. 1: Time results were received.
#     Col. 2: MD5 hash of participant's IP address.
#     Col. 3: Controller name.
#     Col. 4: Item number.
#     Col. 5: Element number.
#     Col. 6: Type.
#     Col. 7: Group.
#     Col. 8: Question (NULL if none).
#     Col. 9: Answer.
#     Col. 10: Whether or not answer was correct (NULL if N/A).
#     Col. 11: Time taken to answer.
# Line 2:
#     Col. 1: Time results were received.
#     Col. 2: MD5 hash of participant's IP address.
#     Col. 3: Controller name.
#     Col. 4: Item number.
#     Col. 5: Element number.
#     Col. 6: Type.
#     Col. 7: Group.
#     Col. 8: Word number.
#     Col. 9: Word.
#     Col. 10: Reading time.
#     Col. 11: Newline?
#     Col. 12: Sentence (or sentence MD5).
1471977286,ffccb47e38f41cb8b406892f4c6873fb,Question,454,1,filler,83,How acceptable did you find the sentence?,3,NULL,257
1471977286,ffccb47e38f41cb8b406892f4c6873fb,DashedSentence,423,0,filler,52,1,The flaws,83,False,The flaws in the speech allegedly have caused an unnecessary outrage among the political elite.
# Columns below this comment are as follows:
# 1. Time results were received.
# 2. MD5 hash of participant's IP address.
# 3. Controller name.
# 4. Item number.
# 5. Element number.
# 6. Type.
# 7. Group.
# 8. Word number.
# 9. Word.
# 10. Reading time.
# 11. Newline?
# 12. Sentence (or sentence MD5).
1471977286,ffccb47e38f41cb8b406892f4c6873fb,DashedSentence,423,0,filler,52,2,in the speech,84,False,The flaws in the speech allegedly have caused an unnecessary outrage among the political elite.
1471977286,ffccb47e38f41cb8b406892f4c6873fb,DashedSentence,423,0,filler,52,3,allegedly have caused,85,False,The flaws in the speech allegedly have caused an unnecessary outrage among the political elite.
1471977286,ffccb47e38f41cb8b406892f4c6873fb,DashedSentence,423,0,filler,52,4,an unnecessary outrage,84,False,The flaws in the speech allegedly have caused an unnecessary outrage among the political elite.
1471977286,ffccb47e38f41cb8b406892f4c6873fb,DashedSentence,423,0,filler,52,5,among the political elite.,85,False,The flaws in the speech allegedly have caused an unnecessary outrage among the political elite.
# The lines below this comment are in groups of 2.
# The formats of the lines in each of these groups are as follows:
#
# Line 1:
#     Col. 1: Time results were received.
#     Col. 2: MD5 hash of participant's IP address.
#     Col. 3: Controller name.
#     Col. 4: Item number.
#     Col. 5: Element number.
#     Col. 6: Type.
#     Col. 7: Group.
#     Col. 8: Question (NULL if none).
#     Col. 9: Answer.
#     Col. 10: Whether or not answer was correct (NULL if N/A).
#     Col. 11: Time taken to answer.
# Line 2:
#     Col. 1: Time results were received.
#     Col. 2: MD5 hash of participant's IP address.
#     Col. 3: Controller name.
#     Col. 4: Item number.
#     Col. 5: Element number.
#     Col. 6: Type.
#     Col. 7: Group.
#     Col. 8: Word number.
#     Col. 9: Word.
#     Col. 10: Reading time.
#     Col. 11: Newline?
#     Col. 12: Sentence (or sentence MD5).
1471977286,ffccb47e38f41cb8b406892f4c6873fb,Question,423,1,filler,52,How acceptable did you find the sentence?,5,NULL,819
1471977286,ffccb47e38f41cb8b406892f4c6873fb,DashedSentence,239,0,cond-D,26,1,The tourist,84,False,The tourist that swam near the hotels apparently go to the same resort every year during Christmas.
# Columns below this comment are as follows:
# 1. Time results were received.
# 2. MD5 hash of participant's IP address.
# 3. Controller name.
# 4. Item number.
# 5. Element number.
# 6. Type.
# 7. Group.
# 8. Word number.
# 9. Word.
# 10. Reading time.
# 11. Newline?
# 12. Sentence (or sentence MD5).
1471977286,ffccb47e38f41cb8b406892f4c6873fb,DashedSentence,239,0,cond-D,26,2,that swam near the hotels,85,False,The tourist that swam near the hotels apparently go to the same resort every year during Christmas.
1471977286,ffccb47e38f41cb8b406892f4c6873fb,DashedSentence,239,0,cond-D,26,3,apparently go,84,False,The tourist that swam near the hotels apparently go to the same resort every year during Christmas.
1471977286,ffccb47e38f41cb8b406892f4c6873fb,DashedSentence,239,0,cond-D,26,4,to the same resort,85,False,The tourist that swam near the hotels apparently go to the same resort every year during Christmas.
1471977286,ffccb47e38f41cb8b406892f4c6873fb,DashedSentence,239,0,cond-D,26,5,every year during Christmas.,84,False,The tourist that swam near the hotels apparently go to the same resort every year during Christmas.
# The lines below this comment are in groups of 2.
# The formats of the lines in each of these groups are as follows:
#
# Line 1:
#     Col. 1: Time results were received.
#     Col. 2: MD5 hash of participant's IP address.
#     Col. 3: Controller name.
#     Col. 4: Item number.
#     Col. 5: Element number.
#     Col. 6: Type.
#     Col. 7: Group.
#     Col. 8: Question (NULL if none).
#     Col. 9: Answer.
#     Col. 10: Whether or not answer was correct (NULL if N/A).
#     Col. 11: Time taken to answer.
# Line 2:
#     Col. 1: Time results were received.
#     Col. 2: MD5 hash of participant's IP address.
#     Col. 3: Controller name.
#     Col. 4: Item number.
#     Col. 5: Element number.
#     Col. 6: Type.
#     Col. 7: Group.
#     Col. 8: Word number.
#     Col. 9: Word.
#     Col. 10: Reading time.
#     Col. 11: Newline?
#     Col. 12: Sentence (or sentence MD5).
1471977286,ffccb47e38f41cb8b406892f4c6873fb,Question,239,1,cond-D,26,How acceptable did you find the sentence?,3,NULL,277
1471977286,ffccb47e38f41cb8b406892f4c6873fb,DashedSentence,491,0,filler,120,1,The infantryman,84,False,The infantryman in the corridor that lead to the courtyard apparently was preparing herself for the battle.
# Columns below this comment are as follows:
# 1. Time results were received.
# 2. MD5 hash of participant's IP address.
# 3. Controller name.
# 4. Item number.
# 5. Element number.
# 6. Type.
# 7. Group.
# 8. Word number.
# 9. Word.
# 10. Reading time.
# 11. Newline?
# 12. Sentence (or sentence MD5).
1471977286,ffccb47e38f41cb8b406892f4c6873fb,DashedSentence,491,0,filler,120,2,in the corridor,85,False,The infantryman in the corridor that lead to the courtyard apparently was preparing herself for the battle.
1471977286,ffccb47e38f41cb8b406892f4c6873fb,DashedSentence,491,0,filler,120,3,that lead to the courtyard,83,False,The infantryman in the corridor that lead to the courtyard apparently was preparing herself for the battle.
1471977286,ffccb47e38f41cb8b406892f4c6873fb,DashedSentence,491,0,filler,120,4,apparently was preparing herself,84,False,The infantryman in the corridor that lead to the courtyard apparently was preparing herself for the battle.
1471977286,ffccb47e38f41cb8b406892f4c6873fb,DashedSentence,491,0,filler,120,5,for the battle.,85,False,The infantryman in the corridor that lead to the courtyard apparently was preparing herself for the battle.
# The lines below this comment are in groups of 2.
# The formats of the lines in each of these groups are as follows:
#
# Line 1:
#     Col. 1: Time results were received.
#     Col. 2: MD5 hash of participant's IP address.
#     Col. 3: Controller name.
#     Col. 4: Item number.
#     Col. 5: Element number.
#     Col. 6: Type.
#     Col. 7: Group.
#     Col. 8: Question (NULL if none).
#     Col. 9: Answer.
#     Col. 10: Whether or not answer was correct (NULL if N/A).
#     Col. 11: Time taken to answer.
# Line 2:
#     Col. 1: Time results were received.
#     Col. 2: MD5 hash of participant's IP address.
#     Col. 3: Controller name.
#     Col. 4: Item number.
#     Col. 5: Element number.
#     Col. 6: Type.
#     Col. 7: Group.
#     Col. 8: Word number.
#     Col. 9: Word.
#     Col. 10: Reading time.
#     Col. 11: Newline?
#     Col. 12: Sentence (or sentence MD5).
1471977286,ffccb47e38f41cb8b406892f4c6873fb,Question,491,1,filler,120,How acceptable did you find the sentence?,1,NULL,346
1471977286,ffccb47e38f41cb8b406892f4c6873fb,DashedSentence,367,0,cond-D,42,1,The flower,84,False,The flower that grew near the lakes finally have been put on the list of endangered plants.
# Columns below this comment are as follows:
# 1. Time results were received.
# 2. MD5 hash of participant's IP address.
# 3. Controller name.
# 4. Item number.
# 5. Element number.
# 6. Type.
# 7. Group.
# 8. Word number.
# 9. Word.
# 10. Reading time.
# 11. Newline?
# 12. Sentence (or sentence MD5).
1471977286,ffccb47e38f41cb8b406892f4c6873fb,DashedSentence,367,0,cond-D,42,2,that grew near the lakes,83,False,The flower that grew near the lakes finally have been put on the list of endangered plants.
1471977286,ffccb47e38f41cb8b406892f4c6873fb,DashedSentence,367,0,cond-D,42,3,finally have been put,84,False,The flower that grew near the lakes finally have been put on the list of endangered plants.
1471977286,ffccb47e38f41cb8b406892f4c6873fb,DashedSentence,367,0,cond-D,42,4,on the list,84,False,The flower that grew near the lakes finally have been put on the list of endangered plants.
1471977286,ffccb47e38f41cb8b406892f4c6873fb,DashedSentence,367,0,cond-D,42,5,of endangered plants.,85,False,The flower that grew near the lakes finally have been put on the list of endangered plants.
# The lines below this comment are in groups of 2.
# The formats of the lines in each of these groups are as follows:
#
# Line 1:
#     Col. 1: Time results were received.
#     Col. 2: MD5 hash of participant's IP address.
#     Col. 3: Controller name.
#     Col. 4: Item number.
#     Col. 5: Element number.
#     Col. 6: Type.
#     Col. 7: Group.
#     Col. 8: Question (NULL if none).
#     Col. 9: Answer.
#     Col. 10: Whether or not answer was correct (NULL if N/A).
#     Col. 11: Time taken to answer.
# Line 2:
#     Col. 1: Time results were received.
#     Col. 2: MD5 hash of participant's IP address.
#     Col. 3: Controller name.
#     Col. 4: Item number.
#     Col. 5: Element number.
#     Col. 6: Type.
#     Col. 7: Group.
#     Col. 8: Word number.
#     Col. 9: Word.
#     Col. 10: Reading time.
#     Col. 11: Newline?
#     Col. 12: Sentence (or sentence MD5).
1471977286,ffccb47e38f41cb8b406892f4c6873fb,Question,367,1,cond-D,42,How acceptable did you find the sentence?,2,NULL,315
1471977286,ffccb47e38f41cb8b406892f4c6873fb,DashedSentence,440,0,filler,69,1,The fugitives,85,False,The fugitives supposedly don't have any idea about how to build a fire despite escaping to the wilderness.
# Columns below this comment are as follows:
# 1. Time results were received.
# 2. MD5 hash of participant's IP address.
# 3. Controller name.
# 4. Item number.
# 5. Element number.
# 6. Type.
# 7. Group.
# 8. Word number.
# 9. Word.
# 10. Reading time.
# 11. Newline?
# 12. Sentence (or sentence MD5).
1471977286,ffccb47e38f41cb8b406892f4c6873fb,DashedSentence,440,0,filler,69,2,supposedly don't have any idea,85,False,The fugitives supposedly don't have any idea about how to build a fire despite escaping to the wilderness.
1471977286,ffccb47e38f41cb8b406892f4c6873fb,DashedSentence,440,0,filler,69,3,about how to build a fire,84,False,The fugitives supposedly don't have any idea about how to build a fire despite escaping to the wilderness.
1471977286,ffccb47e38f41cb8b406892f4c6873fb,DashedSentence,440,0,filler,69,4,despite escaping,83,False,The fugitives supposedly don't have any idea about how to build a fire despite escaping to the wilderness.
1471977286,ffccb47e38f41cb8b406892f4c6873fb,DashedSentence,440,0,filler,69,5,to the wilderness.,84,False,The fugitives supposedly don't have any idea about how to build a fire despite escaping to the wilderness.
# The lines below this comment are in groups of 2.
# The formats of the lines in each of these groups are as follows:
#
# Line 1:
#     Col. 1: Time results were received.
#     Col. 2: MD5 hash of participant's IP address.
#     Col. 3: Controller name.
#     Col. 4: Item number.
#     Col. 5: Element number.
#     Col. 6: Type.
#     Col. 7: Group.
#     Col. 8: Question (NULL if none).
#     Col. 9: Answer.
#     Col. 10: Whether or not answer was correct (NULL if N/A).
#     Col. 11: Time taken to answer.
# Line 2:
#     Col. 1: Time results were received.
#     Col. 2: MD5 hash of participant's IP address.
#     Col. 3: Controller name.
#     Col. 4: Item number.
#     Col. 5: Element number.
#     Col. 6: Type.
#     Col. 7: Group.
#     Col. 8: Word number.
#     Col. 9: Word.
#     Col. 10: Reading time.
#     Col. 11: Newline?
#     Col. 12: Sentence (or sentence MD5).
1471977286,ffccb47e38f41cb8b406892f4c6873fb,Question,440,1,filler,69,How acceptable did you find the sentence?,3,NULL,334
1471977286,ffccb47e38f41cb8b406892f4c6873fb,DashedSentence,93,0,cond-B,8,1,The scratch,84,False,The scratch that appeared on the windows allegedly was caused by the storm last night.
# Columns below this comment are as follows:
# 1. Time results were received.
# 2. MD5 hash of participant's IP address.
# 3. Controller name.
# 4. Item number.
# 5. Element number.
# 6. Type.
# 7. Group.
# 8. Word number.
# 9. Word.
# 10. Reading time.
# 11. Newline?
# 12. Sentence (or sentence MD5).
1471977286,ffccb47e38f41cb8b406892f4c6873fb,DashedSentence,93,0,cond-B,8,2,that appeared on the windows,85,False,The scratch that appeared on the windows allegedly was caused by the storm last night.
1471977286,ffccb47e38f41cb8b406892f4c6873fb,DashedSentence,93,0,cond-B,8,3,allegedly was caused,84,False,The scratch that appeared on the windows allegedly was caused by the storm last night.
1471977286,ffccb47e38f41cb8b406892f4c6873fb,DashedSentence,93,0,cond-B,8,4,by the storm,84,False,The scratch that appeared on the windows allegedly was caused by the storm last night.
1471977286,ffccb47e38f41cb8b406892f4c6873fb,DashedSentence,93,0,cond-B,8,5,last night.,84,False,The scratch that appeared on the windows allegedly was caused by the storm last night.
# The lines below this comment are in groups of 2.
# The formats of the lines in each of these groups are as follows:
#
# Line 1:
#     Col. 1: Time results were received.
#     Col. 2: MD5 hash of participant's IP address.
#     Col. 3: Controller name.
#     Col. 4: Item number.
#     Col. 5: Element number.
#     Col. 6: Type.
#     Col. 7: Group.
#     Col. 8: Question (NULL if none).
#     Col. 9: Answer.
#     Col. 10: Whether or not answer was correct (NULL if N/A).
#     Col. 11: Time taken to answer.
# Line 2:
#     Col. 1: Time results were received.
#     Col. 2: MD5 hash of participant's IP address.
#     Col. 3: Controller name.
#     Col. 4: Item number.
#     Col. 5: Element number.
#     Col. 6: Type.
#     Col. 7: Group.
#     Col. 8: Word number.
#     Col. 9: Word.
#     Col. 10: Reading time.
#     Col. 11: Newline?
#     Col. 12: Sentence (or sentence MD5).
1471977286,ffccb47e38f41cb8b406892f4c6873fb,Question,93,1,cond-B,8,How acceptable did you find the sentence?,4,NULL,313
1471977286,ffccb47e38f41cb8b406892f4c6873fb,DashedSentence,421,0,filler,50,1,The ducks,84,False,The ducks near the pond apparently were walking away from the shoreline and into the woods.
# Columns below this comment are as follows:
# 1. Time results were received.
# 2. MD5 hash of participant's IP address.
# 3. Controller name.
# 4. Item number.
# 5. Element number.
# 6. Type.
# 7. Group.
# 8. Word number.
# 9. Word.
# 10. Reading time.
# 11. Newline?
# 12. Sentence (or sentence MD5).
1471977286,ffccb47e38f41cb8b406892f4c6873fb,DashedSentence,421,0,filler,50,2,near the pond,85,False,The ducks near the pond apparently were walking away from the shoreline and into the woods.
1471977286,ffccb47e38f41cb8b406892f4c6873fb,DashedSentence,421,0,filler,50,3,apparently were walking,85,False,The ducks near the pond apparently were walking away from the shoreline and into the woods.
1471977286,ffccb47e38f41cb8b406892f4c6873fb,DashedSentence,421,0,filler,50,4,away from the shoreline,84,False,The ducks near the pond apparently were walking away from the shoreline and into the woods.
1471977286,ffccb47e38f41cb8b406892f4c6873fb,DashedSentence,421,0,filler,50,5,and into the woods.,84,False,The ducks near the pond apparently were walking away from the shoreline and into the woods.
# The lines below this comment are in groups of 2.
# The formats of the lines in each of these groups are as follows:
#
# Line 1:
#     Col. 1: Time results were received.
#     Col. 2: MD5 hash of participant's IP address.
#     Col. 3: Controller name.
#     Col. 4: Item number.
#     Col. 5: Element number.
#     Col. 6: Type.
#     Col. 7: Group.
#     Col. 8: Question (NULL if none).
#     Col. 9: Answer.
#     Col. 10: Whether or not answer was correct (NULL if N/A).
#     Col. 11: Time taken to answer.
# Line 2:
#     Col. 1: Time results were received.
#     Col. 2: MD5 hash of participant's IP address.
#     Col. 3: Controller name.
#     Col. 4: Item number.
#     Col. 5: Element number.
#     Col. 6: Type.
#     Col. 7: Group.
#     Col. 8: Word number.
#     Col. 9: Word.
#     Col. 10: Reading time.
#     Col. 11: Newline?
#     Col. 12: Sentence (or sentence MD5).
1471977286,ffccb47e38f41cb8b406892f4c6873fb,Question,421,1,filler,50,How acceptable did you find the sentence?,3,NULL,389
1471977286,ffccb47e38f41cb8b406892f4c6873fb,DashedSentence,447,0,filler,76,1,The janitor,85,False,The janitor apparently was kicking himself for forgetting to put the broom back in the closet the day before.
# Columns below this comment are as follows:
# 1. Time results were received.
# 2. MD5 hash of participant's IP address.
# 3. Controller name.
# 4. Item number.
# 5. Element number.
# 6. Type.
# 7. Group.
# 8. Word number.
# 9. Word.
# 10. Reading time.
# 11. Newline?
# 12. Sentence (or sentence MD5).
1471977286,ffccb47e38f41cb8b406892f4c6873fb,DashedSentence,447,0,filler,76,2,apparently was kicking himself,85,False,The janitor apparently was kicking himself for forgetting to put the broom back in the closet the day before.
1471977286,ffccb47e38f41cb8b406892f4c6873fb,DashedSentence,447,0,filler,76,3,for forgetting to put the broom,84,False,The janitor apparently was kicking himself for forgetting to put the broom back in the closet the day before.
1471977286,ffccb47e38f41cb8b406892f4c6873fb,DashedSentence,447,0,filler,76,4,back in the closet,84,False,The janitor apparently was kicking himself for forgetting to put the broom back in the closet the day before.
1471977286,ffccb47e38f41cb8b406892f4c6873fb,DashedSentence,447,0,filler,76,5,the day before.,85,False,The janitor apparently was kicking himself for forgetting to put the broom back in the closet the day before.
# The lines below this comment are in groups of 2.
# The formats of the lines in each of these groups are as follows:
#
# Line 1:
#     Col. 1: Time results were received.
#     Col. 2: MD5 hash of participant's IP address.
#     Col. 3: Controller name.
#     Col. 4: Item number.
#     Col. 5: Element number.
#     Col. 6: Type.
#     Col. 7: Group.
#     Col. 8: Question (NULL if none).
#     Col. 9: Answer.
#     Col. 10: Whether or not answer was correct (NULL if N/A).
#     Col. 11: Time taken to answer.
# Line 2:
#     Col. 1: Time results were received.
#     Col. 2: MD5 hash of participant's IP address.
#     Col. 3: Controller name.
#     Col. 4: Item number.
#     Col. 5: Element number.
#     Col. 6: Type.
#     Col. 7: Group.
#     Col. 8: Word number.
#     Col. 9: Word.
#     Col. 10: Reading time.
#     Col. 11: Newline?
#     Col. 12: Sentence (or sentence MD5).
1471977286,ffccb47e38f41cb8b406892f4c6873fb,Question,447,1,filler,76,How acceptable did you find the sentence?,7,NULL,346
1471977286,ffccb47e38f41cb8b406892f4c6873fb,DashedSentence,285,0,cond-B,32,1,The cyclist,84,False,The cyclist that rested by the fountains reportedly is training for the race next week.
# Columns below this comment are as follows:
# 1. Time results were received.
# 2. MD5 hash of participant's IP address.
# 3. Controller name.
# 4. Item number.
# 5. Element number.
# 6. Type.
# 7. Group.
# 8. Word number.
# 9. Word.
# 10. Reading time.
# 11. Newline?
# 12. Sentence (or sentence MD5).
1471977286,ffccb47e38f41cb8b406892f4c6873fb,DashedSentence,285,0,cond-B,32,2,that rested by the fountains,84,False,The cyclist that rested by the fountains reportedly is training for the race next week.
1471977286,ffccb47e38f41cb8b406892f4c6873fb,DashedSentence,285,0,cond-B,32,3,reportedly is training,83,False,The cyclist that rested by the fountains reportedly is training for the race next week.
1471977286,ffccb47e38f41cb8b406892f4c6873fb,DashedSentence,285,0,cond-B,32,4,for the race,85,False,The cyclist that rested by the fountains reportedly is training for the race next week.
1471977286,ffccb47e38f41cb8b406892f4c6873fb,DashedSentence,285,0,cond-B,32,5,next week.,83,False,The cyclist that rested by the fountains reportedly is training for the race next week.
# The lines below this comment are in groups of 2.
# The formats of the lines in each of these groups are as follows:
#
# Line 1:
#     Col. 1: Time results were received.
#     Col. 2: MD5 hash of participant's IP address.
#     Col. 3: Controller name.
#     Col. 4: Item number.
#     Col. 5: Element number.
#     Col. 6: Type.
#     Col. 7: Group.
#     Col. 8: Question (NULL if none).
#     Col. 9: Answer.
#     Col. 10: Whether or not answer was correct (NULL if N/A).
#     Col. 11: Time taken to answer.
# Line 2:
#     Col. 1: Time results were received.
#     Col. 2: MD5 hash of participant's IP address.
#     Col. 3: Controller name.
#     Col. 4: Item number.
#     Col. 5: Element number.
#     Col. 6: Type.
#     Col. 7: Group.
#     Col. 8: Word number.
#     Col. 9: Word.
#     Col. 10: Reading time.
#     Col. 11: Newline?
#     Col. 12: Sentence (or sentence MD5).
1471977286,ffccb47e38f41cb8b406892f4c6873fb,Question,285,1,cond-B,32,How acceptable did you find the sentence?,6,NULL,293
1471977286,ffccb47e38f41cb8b406892f4c6873fb,DashedSentence,432,0,filler,61,1,The commentators,84,False,The commentators that spoke about the baseball game on the radio show apparently said nothing about the all-star rookie.
# Columns below this comment are as follows:
# 1. Time results were received.
# 2. MD5 hash of participant's IP address.
# 3. Controller name.
# 4. Item number.
# 5. Element number.
# 6. Type.
# 7. Group.
# 8. Word number.
# 9. Word.
# 10. Reading time.
# 11. Newline?
# 12. Sentence (or sentence MD5).
1471977286,ffccb47e38f41cb8b406892f4c6873fb,DashedSentence,432,0,filler,61,2,that spoke about the baseball game,85,False,The commentators that spoke about the baseball game on the radio show apparently said nothing about the all-star rookie.
1471977286,ffccb47e38f41cb8b406892f4c6873fb,DashedSentence,432,0,filler,61,3,on the radio show,84,False,The commentators that spoke about the baseball game on the radio show apparently said nothing about the all-star rookie.
1471977286,ffccb47e38f41cb8b406892f4c6873fb,DashedSentence,432,0,filler,61,4,apparently said nothing,84,False,The commentators that spoke about the baseball game on the radio show apparently said nothing about the all-star rookie.
1471977286,ffccb47e38f41cb8b406892f4c6873fb,DashedSentence,432,0,filler,61,5,about the all-star rookie.,84,False,The commentators that spoke about the baseball game on the radio show apparently said nothing about the all-star rookie.
# The lines below this comment are in groups of 2.
# The formats of the lines in each of these groups are as follows:
#
# Line 1:
#     Col. 1: Time results were received.
#     Col. 2: MD5 hash of participant's IP address.
#     Col. 3: Controller name.
#     Col. 4: Item number.
#     Col. 5: Element number.
#     Col. 6: Type.
#     Col. 7: Group.
#     Col. 8: Question (NULL if none).
#     Col. 9: Answer.
#     Col. 10: Whether or not answer was correct (NULL if N/A).
#     Col. 11: Time taken to answer.
# Line 2:
#     Col. 1: Time results were received.
#     Col. 2: MD5 hash of participant's IP address.
#     Col. 3: Controller name.
#     Col. 4: Item number.
#     Col. 5: Element number.
#     Col. 6: Type.
#     Col. 7: Group.
#     Col. 8: Word number.
#     Col. 9: Word.
#     Col. 10: Reading time.
#     Col. 11: Newline?
#     Col. 12: Sentence (or sentence MD5).
1471977286,ffccb47e38f41cb8b406892f4c6873fb,Question,432,1,filler,61,How acceptable did you find the sentence?,4,NULL,403
1471977286,ffccb47e38f41cb8b406892f4c6873fb,DashedSentence,385,0,cond-F,44,1,The memo,83,False,The memo from the managers apparently has prompted a big uproar from the staff.
# Columns below this comment are as follows:
# 1. Time results were received.
# 2. MD5 hash of participant's IP address.
# 3. Controller name.
# 4. Item number.
# 5. Element number.
# 6. Type.
# 7. Group.
# 8. Word number.
# 9. Word.
# 10. Reading time.
# 11. Newline?
# 12. Sentence (or sentence MD5).
1471977286,ffccb47e38f41cb8b406892f4c6873fb,DashedSentence,385,0,cond-F,44,2,from the managers,85,False,The memo from the managers apparently has prompted a big uproar from the staff.
1471977286,ffccb47e38f41cb8b406892f4c6873fb,DashedSentence,385,0,cond-F,44,3,apparently has prompted,84,False,The memo from the managers apparently has prompted a big uproar from the staff.
1471977286,ffccb47e38f41cb8b406892f4c6873fb,DashedSentence,385,0,cond-F,44,4,a big uproar,85,False,The memo from the managers apparently has prompted a big uproar from the staff.
1471977286,ffccb47e38f41cb8b406892f4c6873fb,DashedSentence,385,0,cond-F,44,5,from the staff.,84,False,The memo from the managers apparently has prompted a big uproar from the staff.
# The lines below this comment are in groups of 2.
# The formats of the lines in each of these groups are as follows:
#
# Line 1:
#     Col. 1: Time results were received.
#     Col. 2: MD5 hash of participant's IP address.
#     Col. 3: Controller name.
#     Col. 4: Item number.
#     Col. 5: Element number.
#     Col. 6: Type.
#     Col. 7: Group.
#     Col. 8: Question (NULL if none).
#     Col. 9: Answer.
#     Col. 10: Whether or not answer was correct (NULL if N/A).
#     Col. 11: Time taken to answer.
# Line 2:
#     Col. 1: Time results were received.
#     Col. 2: MD5 hash of participant's IP address.
#     Col. 3: Controller name.
#     Col. 4: Item number.
#     Col. 5: Element number.
#     Col. 6: Type.
#     Col. 7: Group.
#     Col. 8: Word number.
#     Col. 9: Word.
#     Col. 10: Reading time.
#     Col. 11: Newline?
#     Col. 12: Sentence (or sentence MD5).
1471977286,ffccb47e38f41cb8b406892f4c6873fb,Question,385,1,cond-F,44,How acceptable did you find the sentence?,4,NULL,324
1471977286,ffccb47e38f41cb8b406892f4c6873fb,DashedSentence,485,0,filler,114,1,The salesman,85,False,The salesman apparently saw herself as a generous person after giving a good deal to the young family.
# Columns below this comment are as follows:
# 1. Time results were received.
# 2. MD5 hash of participant's IP address.
# 3. Controller name.
# 4. Item number.
# 5. Element number.
# 6. Type.
# 7. Group.
# 8. Word number.
# 9. Word.
# 10. Reading time.
# 11. Newline?
# 12. Sentence (or sentence MD5).
1471977286,ffccb47e38f41cb8b406892f4c6873fb,DashedSentence,485,0,filler,114,2,apparently saw herself,84,False,The salesman apparently saw herself as a generous person after giving a good deal to the young family.
1471977286,ffccb47e38f41cb8b406892f4c6873fb,DashedSentence,485,0,filler,114,3,as a generous person,84,False,The salesman apparently saw herself as a generous person after giving a good deal to the young family.
1471977286,ffccb47e38f41cb8b406892f4c6873fb,DashedSentence,485,0,filler,114,4,after giving a good deal,84,False,The salesman apparently saw herself as a generous person after giving a good deal to the young family.
1471977286,ffccb47e38f41cb8b406892f4c6873fb,DashedSentence,485,0,filler,114,5,to the young family.,85,False,The salesman apparently saw herself as a generous person after giving a good deal to the young family.
# The lines below this comment are in groups of 2.
# The formats of the lines in each of these groups are as follows:
#
# Line 1:
#     Col. 1: Time results were received.
#     Col. 2: MD5 hash of participant's IP address.
#     Col. 3: Controller name.
#     Col. 4: Item number.
#     Col. 5: Element number.
#     Col. 6: Type.
#     Col. 7: Group.
#     Col. 8: Question (NULL if none).
#     Col. 9: Answer.
#     Col. 10: Whether or not answer was correct (NULL if N/A).
#     Col. 11: Time taken to answer.
# Line 2:
#     Col. 1: Time results were received.
#     Col. 2: MD5 hash of participant's IP address.
#     Col. 3: Controller name.
#     Col. 4: Item number.
#     Col. 5: Element number.
#     Col. 6: Type.
#     Col. 7: Group.
#     Col. 8: Word number.
#     Col. 9: Word.
#     Col. 10: Reading time.
#     Col. 11: Newline?
#     Col. 12: Sentence (or sentence MD5).
1471977286,ffccb47e38f41cb8b406892f4c6873fb,Question,485,1,filler,114,How acceptable did you find the sentence?,1,NULL,267
1471977286,ffccb47e38f41cb8b406892f4c6873fb,DashedSentence,456,0,filler,85,1,The customers,83,False,The customers near the display rack apparently wants the employee discount after waiting for an hour.
# Columns below this comment are as follows:
# 1. Time results were received.
# 2. MD5 hash of participant's IP address.
# 3. Controller name.
# 4. Item number.
# 5. Element number.
# 6. Type.
# 7. Group.
# 8. Word number.
# 9. Word.
# 10. Reading time.
# 11. Newline?
# 12. Sentence (or sentence MD5).
1471977286,ffccb47e38f41cb8b406892f4c6873fb,DashedSentence,456,0,filler,85,2,near the display rack,84,False,The customers near the display rack apparently wants the employee discount after waiting for an hour.
1471977286,ffccb47e38f41cb8b406892f4c6873fb,DashedSentence,456,0,filler,85,3,apparently wants,85,False,The customers near the display rack apparently wants the employee discount after waiting for an hour.
1471977286,ffccb47e38f41cb8b406892f4c6873fb,DashedSentence,456,0,filler,85,4,the employee discount,84,False,The customers near the display rack apparently wants the employee discount after waiting for an hour.
1471977286,ffccb47e38f41cb8b406892f4c6873fb,DashedSentence,456,0,filler,85,5,after waiting for an hour.,85,False,The customers near the display rack apparently wants the employee discount after waiting for an hour.
# The lines below this comment are in groups of 2.
# The formats of the lines in each of these groups are as follows:
#
# Line 1:
#     Col. 1: Time results were received.
#     Col. 2: MD5 hash of participant's IP address.
#     Col. 3: Controller name.
#     Col. 4: Item number.
#     Col. 5: Element number.
#     Col. 6: Type.
#     Col. 7: Group.
#     Col. 8: Question (NULL if none).
#     Col. 9: Answer.
#     Col. 10: Whether or not answer was correct (NULL if N/A).
#     Col. 11: Time taken to answer.
# Line 2:
#     Col. 1: Time results were received.
#     Col. 2: MD5 hash of participant's IP address.
#     Col. 3: Controller name.
#     Col. 4: Item number.
#     Col. 5: Element number.
#     Col. 6: Type.
#     Col. 7: Group.
#     Col. 8: Word number.
#     Col. 9: Word.
#     Col. 10: Reading time.
#     Col. 11: Newline?
#     Col. 12: Sentence (or sentence MD5).
1471977286,ffccb47e38f41cb8b406892f4c6873fb,Question,456,1,filler,85,How acceptable did you find the sentence?,3,NULL,212
1471977286,ffccb47e38f41cb8b406892f4c6873fb,DashedSentence,212,0,cond-A,23,1,The mime,83,False,The mime that performed with the juggler apparently goes to the park to make extra money.
# Columns below this comment are as follows:
# 1. Time results were received.
# 2. MD5 hash of participant's IP address.
# 3. Controller name.
# 4. Item number.
# 5. Element number.
# 6. Type.
# 7. Group.
# 8. Word number.
# 9. Word.
# 10. Reading time.
# 11. Newline?
# 12. Sentence (or sentence MD5).
1471977286,ffccb47e38f41cb8b406892f4c6873fb,DashedSentence,212,0,cond-A,23,2,that performed with the juggler,85,False,The mime that performed with the juggler apparently goes to the park to make extra money.
1471977286,ffccb47e38f41cb8b406892f4c6873fb,DashedSentence,212,0,cond-A,23,3,apparently goes,85,False,The mime that performed with the juggler apparently goes to the park to make extra money.
1471977286,ffccb47e38f41cb8b406892f4c6873fb,DashedSentence,212,0,cond-A,23,4,to the park,84,False,The mime that performed with the juggler apparently goes to the park to make extra money.
1471977286,ffccb47e38f41cb8b406892f4c6873fb,DashedSentence,212,0,cond-A,23,5,to make extra money.,84,False,The mime that performed with the juggler apparently goes to the park to make extra money.
# The lines below this comment are in groups of 2.
# The formats of the lines in each of these groups are as follows:
#
# Line 1:
#     Col. 1: Time results were received.
#     Col. 2: MD5 hash of participant's IP address.
#     Col. 3: Controller name.
#     Col. 4: Item number.
#     Col. 5: Element number.
#     Col. 6: Type.
#     Col. 7: Group.
#     Col. 8: Question (NULL if none).
#     Col. 9: Answer.
#     Col. 10: Whether or not answer was correct (NULL if N/A).
#     Col. 11: Time taken to answer.
# Line 2:
#     Col. 1: Time results were received.
#     Col. 2: MD5 hash of participant's IP address.
#     Col. 3: Controller name.
#     Col. 4: Item number.
#     Col. 5: Element number.
#     Col. 6: Type.
#     Col. 7: Group.
#     Col. 8: Word number.
#     Col. 9: Word.
#     Col. 10: Reading time.
#     Col. 11: Newline?
#     Col. 12: Sentence (or sentence MD5).
1471977286,ffccb47e38f41cb8b406892f4c6873fb,Question,212,1,cond-A,23,How acceptable did you find the sentence?,4,NULL,275
1471977286,ffccb47e38f41cb8b406892f4c6873fb,DashedSentence,486,0,filler,115,1,The king,85,False,The king supposedly amused herself with silly jokes from a book written by the court jester.
# Columns below this comment are as follows:
# 1. Time results were received.
# 2. MD5 hash of participant's IP address.
# 3. Controller name.
# 4. Item number.
# 5. Element number.
# 6. Type.
# 7. Group.
# 8. Word number.
# 9. Word.
# 10. Reading time.
# 11. Newline?
# 12. Sentence (or sentence MD5).
1471977286,ffccb47e38f41cb8b406892f4c6873fb,DashedSentence,486,0,filler,115,2,supposedly amused herself,85,False,The king supposedly amused herself with silly jokes from a book written by the court jester.
1471977286,ffccb47e38f41cb8b406892f4c6873fb,DashedSentence,486,0,filler,115,3,with silly jokes,84,False,The king supposedly amused herself with silly jokes from a book written by the court jester.
1471977286,ffccb47e38f41cb8b406892f4c6873fb,DashedSentence,486,0,filler,115,4,from a book written,84,False,The king supposedly amused herself with silly jokes from a book written by the court jester.
1471977286,ffccb47e38f41cb8b406892f4c6873fb,DashedSentence,486,0,filler,115,5,by the court jester.,84,False,The king supposedly amused herself with silly jokes from a book written by the court jester.
# The lines below this comment are in groups of 2.
# The formats of the lines in each of these groups are as follows:
#
# Line 1:
#     Col. 1: Time results were received.
#     Col. 2: MD5 hash of participant's IP address.
#     Col. 3: Controller name.
#     Col. 4: Item number.
#     Col. 5: Element number.
#     Col. 6: Type.
#     Col. 7: Group.
#     Col. 8: Question (NULL if none).
#     Col. 9: Answer.
#     Col. 10: Whether or not answer was correct (NULL if N/A).
#     Col. 11: Time taken to answer.
# Line 2:
#     Col. 1: Time results were received.
#     Col. 2: MD5 hash of participant's IP address.
#     Col. 3: Controller name.
#     Col. 4: Item number.
#     Col. 5: Element number.
#     Col. 6: Type.
#     Col. 7: Group.
#     Col. 8: Word number.
#     Col. 9: Word.
#     Col. 10: Reading time.
#     Col. 11: Newline?
#     Col. 12: Sentence (or sentence MD5).
1471977286,ffccb47e38f41cb8b406892f4c6873fb,Question,486,1,filler,115,How acceptable did you find the sentence?,5,NULL,166
1471977286,ffccb47e38f41cb8b406892f4c6873fb,DashedSentence,436,0,filler,65,1,The philosopher,84,False,The philosopher apparently didn't eat any lunch before giving the lecture as he had horrible stage fright.
# Columns below this comment are as follows:
# 1. Time results were received.
# 2. MD5 hash of participant's IP address.
# 3. Controller name.
# 4. Item number.
# 5. Element number.
# 6. Type.
# 7. Group.
# 8. Word number.
# 9. Word.
# 10. Reading time.
# 11. Newline?
# 12. Sentence (or sentence MD5).
1471977286,ffccb47e38f41cb8b406892f4c6873fb,DashedSentence,436,0,filler,65,2,apparently didn't eat,84,False,The philosopher apparently didn't eat any lunch before giving the lecture as he had horrible stage fright.
1471977286,ffccb47e38f41cb8b406892f4c6873fb,DashedSentence,436,0,filler,65,3,any lunch,83,False,The philosopher apparently didn't eat any lunch before giving the lecture as he had horrible stage fright.
1471977286,ffccb47e38f41cb8b406892f4c6873fb,DashedSentence,436,0,filler,65,4,before giving the lecture,84,False,The philosopher apparently didn't eat any lunch before giving the lecture as he had horrible stage fright.
1471977286,ffccb47e38f41cb8b406892f4c6873fb,DashedSentence,436,0,filler,65,5,as he had horrible stage fright.,84,False,The philosopher apparently didn't eat any lunch before giving the lecture as he had horrible stage fright.
# The lines below this comment are in groups of 2.
# The formats of the lines in each of these groups are as follows:
#
# Line 1:
#     Col. 1: Time results were received.
#     Col. 2: MD5 hash of participant's IP address.
#     Col. 3: Controller name.
#     Col. 4: Item number.
#     Col. 5: Element number.
#     Col. 6: Type.
#     Col. 7: Group.
#     Col. 8: Question (NULL if none).
#     Col. 9: Answer.
#     Col. 10: Whether or not answer was correct (NULL if N/A).
#     Col. 11: Time taken to answer.
# Line 2:
#     Col. 1: Time results were received.
#     Col. 2: MD5 hash of participant's IP address.
#     Col. 3: Controller name.
#     Col. 4: Item number.
#     Col. 5: Element number.
#     Col. 6: Type.
#     Col. 7: Group.
#     Col. 8: Word number.
#     Col. 9: Word.
#     Col. 10: Reading time.
#     Col. 11: Newline?
#     Col. 12: Sentence (or sentence MD5).
1471977286,ffccb47e38f41cb8b406892f4c6873fb,Question,436,1,filler,65,How acceptable did you find the sentence?,1,NULL,113
1471977286,ffccb47e38f41cb8b406892f4c6873fb,DashedSentence,404,0,cond-A,47,1,The pilot,84,False,The pilot that gossiped with the flight attendant always has information about the executives in Atlanta.
# Columns below this comment are as follows:
# 1. Time results were received.
# 2. MD5 hash of participant's IP address.
# 3. Controller name.
# 4. Item number.
# 5. Element number.
# 6. Type.
# 7. Group.
# 8. Word number.
# 9. Word.
# 10. Reading time.
# 11. Newline?
# 12. Sentence (or sentence MD5).
1471977286,ffccb47e38f41cb8b406892f4c6873fb,DashedSentence,404,0,cond-A,47,2,that gossiped with the flight attendant,84,False,The pilot that gossiped with the flight attendant always has information about the executives in Atlanta.
1471977286,ffccb47e38f41cb8b406892f4c6873fb,DashedSentence,404,0,cond-A,47,3,always has information,84,False,The pilot that gossiped with the flight attendant always has information about the executives in Atlanta.
1471977286,ffccb47e38f41cb8b406892f4c6873fb,DashedSentence,404,0,cond-A,47,4,about the executives,85,False,The pilot that gossiped with the flight attendant always has information about the executives in Atlanta.
1471977286,ffccb47e38f41cb8b406892f4c6873fb,DashedSentence,404,0,cond-A,47,5,in Atlanta.,85,False,The pilot that gossiped with the flight attendant always has information about the executives in Atlanta.
# The lines below this comment are in groups of 2.
# The formats of the lines in each of these groups are as follows:
#
# Line 1:
#     Col. 1: Time results were received.
#     Col. 2: MD5 hash of participant's IP address.
#     Col. 3: Controller name.
#     Col. 4: Item number.
#     Col. 5: Element number.
#     Col. 6: Type.
#     Col. 7: Group.
#     Col. 8: Question (NULL if none).
#     Col. 9: Answer.
#     Col. 10: Whether or not answer was correct (NULL if N/A).
#     Col. 11: Time taken to answer.
# Line 2:
#     Col. 1: Time results were received.
#     Col. 2: MD5 hash of participant's IP address.
#     Col. 3: Controller name.
#     Col. 4: Item number.
#     Col. 5: Element number.
#     Col. 6: Type.
#     Col. 7: Group.
#     Col. 8: Word number.
#     Col. 9: Word.
#     Col. 10: Reading time.
#     Col. 11: Newline?
#     Col. 12: Sentence (or sentence MD5).
1471977286,ffccb47e38f41cb8b406892f4c6873fb,Question,404,1,cond-A,47,How acceptable did you find the sentence?,2,NULL,278
1471977286,ffccb47e38f41cb8b406892f4c6873fb,DashedSentence,441,0,filler,70,1,The contractor,83,False,The contractor for the project that overcharged the homeowners allegedly never gave people a fair price.
# Columns below this comment are as follows:
# 1. Time results were received.
# 2. MD5 hash of participant's IP address.
# 3. Controller name.
# 4. Item number.
# 5. Element number.
# 6. Type.
# 7. Group.
# 8. Word number.
# 9. Word.
# 10. Reading time.
# 11. Newline?
# 12. Sentence (or sentence MD5).
1471977286,ffccb47e38f41cb8b406892f4c6873fb,DashedSentence,441,0,filler,70,2,for the project,84,False,The contractor for the project that overcharged the homeowners allegedly never gave people a fair price.
1471977286,ffccb47e38f41cb8b406892f4c6873fb,DashedSentence,441,0,filler,70,3,that overcharged the homeowners,85,False,The contractor for the project that overcharged the homeowners allegedly never gave people a fair price.
1471977286,ffccb47e38f41cb8b406892f4c6873fb,DashedSentence,441,0,filler,70,4,allegedly never gave people,84,False,The contractor for the project that overcharged the homeowners allegedly never gave people a fair price.
1471977286,ffccb47e38f41cb8b406892f4c6873fb,DashedSentence,441,0,filler,70,5,a fair price.,85,False,The contractor for the project that overcharged the homeowners allegedly never gave people a fair price.
# The lines below this comment are in groups of 2.
# The formats of the lines in each of these groups are as follows:
#
# Line 1:
#     Col. 1: Time results were received.
#     Col. 2: MD5 hash of participant's IP address.
#     Col. 3: Controller name.
#     Col. 4: Item number.
#     Col. 5: Element number.
#     Col. 6: Type.
#     Col. 7: Group.
#     Col. 8: Question (NULL if none).
#     Col. 9: Answer.
#     Col. 10: Whether or not answer was correct (NULL if N/A).
#     Col. 11: Time taken to answer.
# Line 2:
#     Col. 1: Time results were received.
#     Col. 2: MD5 hash of participant's IP address.
#     Col. 3: Controller name.
#     Col. 4: Item number.
#     Col. 5: Element number.
#     Col. 6: Type.
#     Col. 7: Group.
#     Col. 8: Word number.
#     Col. 9: Word.
#     Col. 10: Reading time.
#     Col. 11: Newline?
#     Col. 12: Sentence (or sentence MD5).
1471977286,ffccb47e38f41cb8b406892f4c6873fb,Question,441,1,filler,70,How acceptable did you find the sentence?,3,NULL,154
1471977286,ffccb47e38f41cb8b406892f4c6873fb,DashedSentence,175,0,cond-D,18,1,The mechanic,84,False,The mechanic that slid under the cars apparently work overtime in the winter to take vacations.
# Columns below this comment are as follows:
# 1. Time results were received.
# 2. MD5 hash of participant's IP address.
# 3. Controller name.
# 4. Item number.
# 5. Element number.
# 6. Type.
# 7. Group.
# 8. Word number.
# 9. Word.
# 10. Reading time.
# 11. Newline?
# 12. Sentence (or sentence MD5).
1471977286,ffccb47e38f41cb8b406892f4c6873fb,DashedSentence,175,0,cond-D,18,2,that slid under the cars,85,False,The mechanic that slid under the cars apparently work overtime in the winter to take vacations.
1471977286,ffccb47e38f41cb8b406892f4c6873fb,DashedSentence,175,0,cond-D,18,3,apparently work overtime,84,False,The mechanic that slid under the cars apparently work overtime in the winter to take vacations.
1471977286,ffccb47e38f41cb8b406892f4c6873fb,DashedSentence,175,0,cond-D,18,4,in the winter,84,False,The mechanic that slid under the cars apparently work overtime in the winter to take vacations.
1471977286,ffccb47e38f41cb8b406892f4c6873fb,DashedSentence,175,0,cond-D,18,5,to take vacations.,84,False,The mechanic that slid under the cars apparently work overtime in the winter to take vacations.
# The lines below this comment are in groups of 2.
# The formats of the lines in each of these groups are as follows:
#
# Line 1:
#     Col. 1: Time results were received.
#     Col. 2: MD5 hash of participant's IP address.
#     Col. 3: Controller name.
#     Col. 4: Item number.
#     Col. 5: Element number.
#     Col. 6: Type.
#     Col. 7: Group.
#     Col. 8: Question (NULL if none).
#     Col. 9: Answer.
#     Col. 10: Whether or not answer was correct (NULL if N/A).
#     Col. 11: Time taken to answer.
# Line 2:
#     Col. 1: Time results were received.
#     Col. 2: MD5 hash of participant's IP address.
#     Col. 3: Controller name.
#     Col. 4: Item number.
#     Col. 5: Element number.
#     Col. 6: Type.
#     Col. 7: Group.
#     Col. 8: Word number.
#     Col. 9: Word.
#     Col. 10: Reading time.
#     Col. 11: Newline?
#     Col. 12: Sentence (or sentence MD5).
1471977286,ffccb47e38f41cb8b406892f4c6873fb,Question,175,1,cond-D,18,How acceptable did you find the sentence?,4,NULL,131
1471977286,ffccb47e38f41cb8b406892f4c6873fb,DashedSentence,442,0,filler,71,1,The villagers,83,False,The villagers from the rainforest that fought against the oil company apparently didn't want to move anywhere else.
# Columns below this comment are as follows:
# 1. Time results were received.
# 2. MD5 hash of participant's IP address.
# 3. Controller name.
# 4. Item number.
# 5. Element number.
# 6. Type.
# 7. Group.
# 8. Word number.
# 9. Word.
# 10. Reading time.
# 11. Newline?
# 12. Sentence (or sentence MD5).
1471977286,ffccb47e38f41cb8b406892f4c6873fb,DashedSentence,442,0,filler,71,2,from the rainforest,85,False,The villagers from the rainforest that fought against the oil company apparently didn't want to move anywhere else.
1471977286,ffccb47e38f41cb8b406892f4c6873fb,DashedSentence,442,0,filler,71,3,that fought against the oil company,85,False,The villagers from the rainforest that fought against the oil company apparently didn't want to move anywhere else.
1471977286,ffccb47e38f41cb8b406892f4c6873fb,DashedSentence,442,0,filler,71,4,apparently didn't want,85,False,The villagers from the rainforest that fought against the oil company apparently didn't want to move anywhere else.
1471977286,ffccb47e38f41cb8b406892f4c6873fb,DashedSentence,442,0,filler,71,5,to move anywhere else.,84,False,The villagers from the rainforest that fought against the oil company apparently didn't want to move anywhere else.
# The lines below this comment are in groups of 2.
# The formats of the lines in each of these groups are as follows:
#
# Line 1:
#     Col. 1: Time results were received.
#     Col. 2: MD5 hash of participant's IP address.
#     Col. 3: Controller name.
#     Col. 4: Item number.
#     Col. 5: Element number.
#     Col. 6: Type.
#     Col. 7: Group.
#     Col. 8: Question (NULL if none).
#     Col. 9: Answer.
#     Col. 10: Whether or not answer was correct (NULL if N/A).
#     Col. 11: Time taken to answer.
# Line 2:
#     Col. 1: Time results were received.
#     Col. 2: MD5 hash of participant's IP address.
#     Col. 3: Controller name.
#     Col. 4: Item number.
#     Col. 5: Element number.
#     Col. 6: Type.
#     Col. 7: Group.
#     Col. 8: Word number.
#     Col. 9: Word.
#     Col. 10: Reading time.
#     Col. 11: Newline?
#     Col. 12: Sentence (or sentence MD5).
1471977286,ffccb47e38f41cb8b406892f4c6873fb,Question,442,1,filler,71,How acceptable did you find the sentence?,5,NULL,222
1471977286,ffccb47e38f41cb8b406892f4c6873fb,DashedSentence,465,0,filler,94,1,The recruiters,84,False,The recruiters that goes to the high school football game supposedly found a new player for next year.
# Columns below this comment are as follows:
# 1. Time results were received.
# 2. MD5 hash of participant's IP address.
# 3. Controller name.
# 4. Item number.
# 5. Element number.
# 6. Type.
# 7. Group.
# 8. Word number.
# 9. Word.
# 10. Reading time.
# 11. Newline?
# 12. Sentence (or sentence MD5).
1471977286,ffccb47e38f41cb8b406892f4c6873fb,DashedSentence,465,0,filler,94,2,that goes to the high school football game,84,False,The recruiters that goes to the high school football game supposedly found a new player for next year.
1471977286,ffccb47e38f41cb8b406892f4c6873fb,DashedSentence,465,0,filler,94,3,supposedly found,84,False,The recruiters that goes to the high school football game supposedly found a new player for next year.
1471977286,ffccb47e38f41cb8b406892f4c6873fb,DashedSentence,465,0,filler,94,4,a new player,84,False,The recruiters that goes to the high school football game supposedly found a new player for next year.
1471977286,ffccb47e38f41cb8b406892f4c6873fb,DashedSentence,465,0,filler,94,5,for next year.,85,False,The recruiters that goes to the high school football game supposedly found a new player for next year.
# The lines below this comment are in groups of 2.
# The formats of the lines in each of these groups are as follows:
#
# Line 1:
#     Col. 1: Time results were received.
#     Col. 2: MD5 hash of participant's IP address.
#     Col. 3: Controller name.
#     Col. 4: Item number.
#     Col. 5: Element number.
#     Col. 6: Type.
#     Col. 7: Group.
#     Col. 8: Question (NULL if none).
#     Col. 9: Answer.
#     Col. 10: Whether or not answer was correct (NULL if N/A).
#     Col. 11: Time taken to answer.
# Line 2:
#     Col. 1: Time results were received.
#     Col. 2: MD5 hash of participant's IP address.
#     Col. 3: Controller name.
#     Col. 4: Item number.
#     Col. 5: Element number.
#     Col. 6: Type.
#     Col. 7: Group.
#     Col. 8: Word number.
#     Col. 9: Word.
#     Col. 10: Reading time.
#     Col. 11: Newline?
#     Col. 12: Sentence (or sentence MD5).
1471977286,ffccb47e38f41cb8b406892f4c6873fb,Question,465,1,filler,94,How acceptable did you find the sentence?,6,NULL,167
1471977286,ffccb47e38f41cb8b406892f4c6873fb,DashedSentence,202,0,cond-G,21,1,The farmer,85,False,The farmer in the field always sow all of the seeds for the growing season.
# Columns below this comment are as follows:
# 1. Time results were received.
# 2. MD5 hash of participant's IP address.
# 3. Controller name.
# 4. Item number.
# 5. Element number.
# 6. Type.
# 7. Group.
# 8. Word number.
# 9. Word.
# 10. Reading time.
# 11. Newline?
# 12. Sentence (or sentence MD5).
1471977286,ffccb47e38f41cb8b406892f4c6873fb,DashedSentence,202,0,cond-G,21,2,in the field,83,False,The farmer in the field always sow all of the seeds for the growing season.
1471977286,ffccb47e38f41cb8b406892f4c6873fb,DashedSentence,202,0,cond-G,21,3,always sow,85,False,The farmer in the field always sow all of the seeds for the growing season.
1471977286,ffccb47e38f41cb8b406892f4c6873fb,DashedSentence,202,0,cond-G,21,4,all of the seeds,84,False,The farmer in the field always sow all of the seeds for the growing season.
1471977286,ffccb47e38f41cb8b406892f4c6873fb,DashedSentence,202,0,cond-G,21,5,for the growing season.,85,False,The farmer in the field always sow all of the seeds for the growing season.
# The lines below this comment are in groups of 2.
# The formats of the lines in each of these groups are as follows:
#
# Line 1:
#     Col. 1: Time results were received.
#     Col. 2: MD5 hash of participant's IP address.
#     Col. 3: Controller name.
#     Col. 4: Item number.
#     Col. 5: Element number.
#     Col. 6: Type.
#     Col. 7: Group.
#     Col. 8: Question (NULL if none).
#     Col. 9: Answer.
#     Col. 10: Whether or not answer was correct (NULL if N/A).
#     Col. 11: Time taken to answer.
# Line 2:
#     Col. 1: Time results were received.
#     Col. 2: MD5 hash of participant's IP address.
#     Col. 3: Controller name.
#     Col. 4: Item number.
#     Col. 5: Element number.
#     Col. 6: Type.
#     Col. 7: Group.
#     Col. 8: Word number.
#     Col. 9: Word.
#     Col. 10: Reading time.
#     Col. 11: Newline?
#     Col. 12: Sentence (or sentence MD5).
1471977286,ffccb47e38f41cb8b406892f4c6873fb,Question,202,1,cond-G,21,How acceptable did you find the sentence?,7,NULL,188
1471977286,ffccb47e38f41cb8b406892f4c6873fb,DashedSentence,437,0,filler,66,1,The album,83,False,The album supposedly wasn't sold in stores any longer after receiving a scathing review from the journalist.
# Columns below this comment are as follows:
# 1. Time results were received.
# 2. MD5 hash of participant's IP address.
# 3. Controller name.
# 4. Item number.
# 5. Element number.
# 6. Type.
# 7. Group.
# 8. Word number.
# 9. Word.
# 10. Reading time.
# 11. Newline?
# 12. Sentence (or sentence MD5).
1471977286,ffccb47e38f41cb8b406892f4c6873fb,DashedSentence,437,0,filler,66,2,supposedly wasn't sold,84,False,The album supposedly wasn't sold in stores any longer after receiving a scathing review from the journalist.
1471977286,ffccb47e38f41cb8b406892f4c6873fb,DashedSentence,437,0,filler,66,3,in stores any longer,84,False,The album supposedly wasn't sold in stores any longer after receiving a scathing review from the journalist.
1471977286,ffccb47e38f41cb8b406892f4c6873fb,DashedSentence,437,0,filler,66,4,after receiving a scathing review,85,False,The album supposedly wasn't sold in stores any longer after receiving a scathing review from the journalist.
1471977286,ffccb47e38f41cb8b406892f4c6873fb,DashedSentence,437,0,filler,66,5,from the journalist.,83,False,The album supposedly wasn't sold in stores any longer after receiving a scathing review from the journalist.
# The lines below this comment are in groups of 2.
# The formats of the lines in each of these groups are as follows:
#
# Line 1:
#     Col. 1: Time results were received.
#     Col. 2: MD5 hash of participant's IP address.
#     Col. 3: Controller name.
#     Col. 4: Item number.
#     Col. 5: Element number.
#     Col. 6: Type.
#     Col. 7: Group.
#     Col. 8: Question (NULL if none).
#     Col. 9: Answer.
#     Col. 10: Whether or not answer was correct (NULL if N/A).
#     Col. 11: Time taken to answer.
# Line 2:
#     Col. 1: Time results were received.
#     Col. 2: MD5 hash of participant's IP address.
#     Col. 3: Controller name.
#     Col. 4: Item number.
#     Col. 5: Element number.
#     Col. 6: Type.
#     Col. 7: Group.
#     Col. 8: Word number.
#     Col. 9: Word.
#     Col. 10: Reading time.
#     Col. 11: Newline?
#     Col. 12: Sentence (or sentence MD5).
1471977286,ffccb47e38f41cb8b406892f4c6873fb,Question,437,1,filler,66,How acceptable did you find the sentence?,6,NULL,180
1471977286,ffccb47e38f41cb8b406892f4c6873fb,DashedSentence,394,0,cond-G,45,1,The advertisement,84,False,The advertisement on the billboard supposedly have sparked a public conversation about morality.
# Columns below this comment are as follows:
# 1. Time results were received.
# 2. MD5 hash of participant's IP address.
# 3. Controller name.
# 4. Item number.
# 5. Element number.
# 6. Type.
# 7. Group.
# 8. Word number.
# 9. Word.
# 10. Reading time.
# 11. Newline?
# 12. Sentence (or sentence MD5).
1471977286,ffccb47e38f41cb8b406892f4c6873fb,DashedSentence,394,0,cond-G,45,2,on the billboard,84,False,The advertisement on the billboard supposedly have sparked a public conversation about morality.
1471977286,ffccb47e38f41cb8b406892f4c6873fb,DashedSentence,394,0,cond-G,45,3,supposedly have sparked,84,False,The advertisement on the billboard supposedly have sparked a public conversation about morality.
1471977286,ffccb47e38f41cb8b406892f4c6873fb,DashedSentence,394,0,cond-G,45,4,a public conversation,84,False,The advertisement on the billboard supposedly have sparked a public conversation about morality.
1471977286,ffccb47e38f41cb8b406892f4c6873fb,DashedSentence,394,0,cond-G,45,5,about morality.,86,False,The advertisement on the billboard supposedly have sparked a public conversation about morality.
# The lines below this comment are in groups of 2.
# The formats of the lines in each of these groups are as follows:
#
# Line 1:
#     Col. 1: Time results were received.
#     Col. 2: MD5 hash of participant's IP address.
#     Col. 3: Controller name.
#     Col. 4: Item number.
#     Col. 5: Element number.
#     Col. 6: Type.
#     Col. 7: Group.
#     Col. 8: Question (NULL if none).
#     Col. 9: Answer.
#     Col. 10: Whether or not answer was correct (NULL if N/A).
#     Col. 11: Time taken to answer.
# Line 2:
#     Col. 1: Time results were received.
#     Col. 2: MD5 hash of participant's IP address.
#     Col. 3: Controller name.
#     Col. 4: Item number.
#     Col. 5: Element number.
#     Col. 6: Type.
#     Col. 7: Group.
#     Col. 8: Word number.
#     Col. 9: Word.
#     Col. 10: Reading time.
#     Col. 11: Newline?
#     Col. 12: Sentence (or sentence MD5).
1471977286,ffccb47e38f41cb8b406892f4c6873fb,Question,394,1,cond-G,45,How acceptable did you find the sentence?,5,NULL,278
1471977286,ffccb47e38f41cb8b406892f4c6873fb,DashedSentence,438,0,filler,67,1,The comedian,501,False,The comedian apparently had never been to college but still had strong writing skills from years of work.
# Columns below this comment are as follows:
# 1. Time results were received.
# 2. MD5 hash of participant's IP address.
# 3. Controller name.
# 4. Item number.
# 5. Element number.
# 6. Type.
# 7. Group.
# 8. Word number.
# 9. Word.
# 10. Reading time.
# 11. Newline?
# 12. Sentence (or sentence MD5).
1471977286,ffccb47e38f41cb8b406892f4c6873fb,DashedSentence,438,0,filler,67,2,apparently had never been,84,False,The comedian apparently had never been to college but still had strong writing skills from years of work.
1471977286,ffccb47e38f41cb8b406892f4c6873fb,DashedSentence,438,0,filler,67,3,to college,85,False,The comedian apparently had never been to college but still had strong writing skills from years of work.
1471977286,ffccb47e38f41cb8b406892f4c6873fb,DashedSentence,438,0,filler,67,4,but still had strong writing skills,83,False,The comedian apparently had never been to college but still had strong writing skills from years of work.
1471977286,ffccb47e38f41cb8b406892f4c6873fb,DashedSentence,438,0,filler,67,5,from years of work.,83,False,The comedian apparently had never been to college but still had strong writing skills from years of work.
# The lines below this comment are in groups of 2.
# The formats of the lines in each of these groups are as follows:
#
# Line 1:
#     Col. 1: Time results were received.
#     Col. 2: MD5 hash of participant's IP address.
#     Col. 3: Controller name.
#     Col. 4: Item number.
#     Col. 5: Element number.
#     Col. 6: Type.
#     Col. 7: Group.
#     Col. 8: Question (NULL if none).
#     Col. 9: Answer.
#     Col. 10: Whether or not answer was correct (NULL if N/A).
#     Col. 11: Time taken to answer.
# Line 2:
#     Col. 1: Time results were received.
#     Col. 2: MD5 hash of participant's IP address.
#     Col. 3: Controller name.
#     Col. 4: Item number.
#     Col. 5: Element number.
#     Col. 6: Type.
#     Col. 7: Group.
#     Col. 8: Word number.
#     Col. 9: Word.
#     Col. 10: Reading time.
#     Col. 11: Newline?
#     Col. 12: Sentence (or sentence MD5).
1471977286,ffccb47e38f41cb8b406892f4c6873fb,Question,438,1,filler,67,How acceptable did you find the sentence?,3,NULL,262
1471977286,ffccb47e38f41cb8b406892f4c6873fb,DashedSentence,434,0,filler,63,1,The receptionist,85,False,The receptionist that took the message from the client apparently couldn't find anywhere to put the phone.
# Columns below this comment are as follows:
# 1. Time results were received.
# 2. MD5 hash of participant's IP address.
# 3. Controller name.
# 4. Item number.
# 5. Element number.
# 6. Type.
# 7. Group.
# 8. Word number.
# 9. Word.
# 10. Reading time.
# 11. Newline?
# 12. Sentence (or sentence MD5).
1471977286,ffccb47e38f41cb8b406892f4c6873fb,DashedSentence,434,0,filler,63,2,that took the message,84,False,The receptionist that took the message from the client apparently couldn't find anywhere to put the phone.
1471977286,ffccb47e38f41cb8b406892f4c6873fb,DashedSentence,434,0,filler,63,3,from the client,84,False,The receptionist that took the message from the client apparently couldn't find anywhere to put the phone.
1471977286,ffccb47e38f41cb8b406892f4c6873fb,DashedSentence,434,0,filler,63,4,apparently couldn't find anywhere,84,False,The receptionist that took the message from the client apparently couldn't find anywhere to put the phone.
1471977286,ffccb47e38f41cb8b406892f4c6873fb,DashedSentence,434,0,filler,63,5,to put the phone.,85,False,The receptionist that took the message from the client apparently couldn't find anywhere to put the phone.
# The lines below this comment are in groups of 2.
# The formats of the lines in each of these groups are as follows:
#
# Line 1:
#     Col. 1: Time results were received.
#     Col. 2: MD5 hash of participant's IP address.
#     Col. 3: Controller name.
#     Col. 4: Item number.
#     Col. 5: Element number.
#     Col. 6: Type.
#     Col. 7: Group.
#     Col. 8: Question (NULL if none).
#     Col. 9: Answer.
#     Col. 10: Whether or not answer was correct (NULL if N/A).
#     Col. 11: Time taken to answer.
# Line 2:
#     Col. 1: Time results were received.
#     Col. 2: MD5 hash of participant's IP address.
#     Col. 3: Controller name.
#     Col. 4: Item number.
#     Col. 5: Element number.
#     Col. 6: Type.
#     Col. 7: Group.
#     Col. 8: Word number.
#     Col. 9: Word.
#     Col. 10: Reading time.
#     Col. 11: Newline?
#     Col. 12: Sentence (or sentence MD5).
1471977286,ffccb47e38f41cb8b406892f4c6873fb,Question,434,1,filler,63,How acceptable did you find the sentence?,4,NULL,178
1471977286,ffccb47e38f41cb8b406892f4c6873fb,DashedSentence,266,0,cond-G,29,1,The runner,83,False,The runner behind the cyclist always trip on the curb leading up to the park entrance.
# Columns below this comment are as follows:
# 1. Time results were received.
# 2. MD5 hash of participant's IP address.
# 3. Controller name.
# 4. Item number.
# 5. Element number.
# 6. Type.
# 7. Group.
# 8. Word number.
# 9. Word.
# 10. Reading time.
# 11. Newline?
# 12. Sentence (or sentence MD5).
1471977286,ffccb47e38f41cb8b406892f4c6873fb,DashedSentence,266,0,cond-G,29,2,behind the cyclist,85,False,The runner behind the cyclist always trip on the curb leading up to the park entrance.
1471977286,ffccb47e38f41cb8b406892f4c6873fb,DashedSentence,266,0,cond-G,29,3,always trip,84,False,The runner behind the cyclist always trip on the curb leading up to the park entrance.
1471977286,ffccb47e38f41cb8b406892f4c6873fb,DashedSentence,266,0,cond-G,29,4,on the curb,84,False,The runner behind the cyclist always trip on the curb leading up to the park entrance.
1471977286,ffccb47e38f41cb8b406892f4c6873fb,DashedSentence,266,0,cond-G,29,5,leading up to the park entrance.,85,False,The runner behind the cyclist always trip on the curb leading up to the park entrance.
# The lines below this comment are in groups of 2.
# The formats of the lines in each of these groups are as follows:
#
# Line 1:
#     Col. 1: Time results were received.
#     Col. 2: MD5 hash of participant's IP address.
#     Col. 3: Controller name.
#     Col. 4: Item number.
#     Col. 5: Element number.
#     Col. 6: Type.
#     Col. 7: Group.
#     Col. 8: Question (NULL if none).
#     Col. 9: Answer.
#     Col. 10: Whether or not answer was correct (NULL if N/A).
#     Col. 11: Time taken to answer.
# Line 2:
#     Col. 1: Time results were received.
#     Col. 2: MD5 hash of participant's IP address.
#     Col. 3: Controller name.
#     Col. 4: Item number.
#     Col. 5: Element number.
#     Col. 6: Type.
#     Col. 7: Group.
#     Col. 8: Word number.
#     Col. 9: Word.
#     Col. 10: Reading time.
#     Col. 11: Newline?
#     Col. 12: Sentence (or sentence MD5).
1471977286,ffccb47e38f41cb8b406892f4c6873fb,Question,266,1,cond-G,29,How acceptable did you find the sentence?,5,NULL,265
1471977286,ffccb47e38f41cb8b406892f4c6873fb,DashedSentence,483,0,filler,112,1,The anchorman,84,False,The anchorman supposedly prepared herself for the nightly broadcast by singing showtunes in the green room.
# Columns below this comment are as follows:
# 1. Time results were received.
# 2. MD5 hash of participant's IP address.
# 3. Controller name.
# 4. Item number.
# 5. Element number.
# 6. Type.
# 7. Group.
# 8. Word number.
# 9. Word.
# 10. Reading time.
# 11. Newline?
# 12. Sentence (or sentence MD5).
1471977286,ffccb47e38f41cb8b406892f4c6873fb,DashedSentence,483,0,filler,112,2,supposedly prepared herself,85,False,The anchorman supposedly prepared herself for the nightly broadcast by singing showtunes in the green room.
1471977286,ffccb47e38f41cb8b406892f4c6873fb,DashedSentence,483,0,filler,112,3,for the nightly broadcast,84,False,The anchorman supposedly prepared herself for the nightly broadcast by singing showtunes in the green room.
1471977286,ffccb47e38f41cb8b406892f4c6873fb,DashedSentence,483,0,filler,112,4,by singing showtunes,85,False,The anchorman supposedly prepared herself for the nightly broadcast by singing showtunes in the green room.
1471977286,ffccb47e38f41cb8b406892f4c6873fb,DashedSentence,483,0,filler,112,5,in the green room.,83,False,The anchorman supposedly prepared herself for the nightly broadcast by singing showtunes in the green room.
# The lines below this comment are in groups of 2.
# The formats of the lines in each of these groups are as follows:
#
# Line 1:
#     Col. 1: Time results were received.
#     Col. 2: MD5 hash of participant's IP address.
#     Col. 3: Controller name.
#     Col. 4: Item number.
#     Col. 5: Element number.
#     Col. 6: Type.
#     Col. 7: Group.
#     Col. 8: Question (NULL if none).
#     Col. 9: Answer.
#     Col. 10: Whether or not answer was correct (NULL if N/A).
#     Col. 11: Time taken to answer.
# Line 2:
#     Col. 1: Time results were received.
#     Col. 2: MD5 hash of participant's IP address.
#     Col. 3: Controller name.
#     Col. 4: Item number.
#     Col. 5: Element number.
#     Col. 6: Type.
#     Col. 7: Group.
#     Col. 8: Word number.
#     Col. 9: Word.
#     Col. 10: Reading time.
#     Col. 11: Newline?
#     Col. 12: Sentence (or sentence MD5).
1471977286,ffccb47e38f41cb8b406892f4c6873fb,Question,483,1,filler,112,How acceptable did you find the sentence?,6,NULL,234
1471977286,ffccb47e38f41cb8b406892f4c6873fb,DashedSentence,275,0,cond-H,30,1,The senator,84,False,The senator with the students apparently promise to decrease unemployment in the next two years.
# Columns below this comment are as follows:
# 1. Time results were received.
# 2. MD5 hash of participant's IP address.
# 3. Controller name.
# 4. Item number.
# 5. Element number.
# 6. Type.
# 7. Group.
# 8. Word number.
# 9. Word.
# 10. Reading time.
# 11. Newline?
# 12. Sentence (or sentence MD5).
1471977286,ffccb47e38f41cb8b406892f4c6873fb,DashedSentence,275,0,cond-H,30,2,with the students,85,False,The senator with the students apparently promise to decrease unemployment in the next two years.
1471977286,ffccb47e38f41cb8b406892f4c6873fb,DashedSentence,275,0,cond-H,30,3,apparently promise,84,False,The senator with the students apparently promise to decrease unemployment in the next two years.
