#
# Results on Tuesday August 23 2016 15:14:43 UTC.
# USER AGENT: Mozilla/5.0 (Macintosh; Intel Mac OS X 10_11_6) AppleWebKit/537.36 (KHTML, like Gecko) Chrome/51.0.2704.103 Safari/537.36
# Design number was non-random = 1
#
# Columns below this comment are as follows:
# 1. Time results were received.
# 2. MD5 hash of participant's IP address.
# 3. Controller name.
# 4. Item number.
# 5. Element number.
# 6. Type.
# 7. Group.
# 8. Field name.
# 9. Field value.
1471965283,e5dcb6ad4a75de404163347b990a8840,Form,0,0,consent,NULL,consent,yes
1471965283,e5dcb6ad4a75de404163347b990a8840,Form,2,0,intro,NULL,other,gender
1471965283,e5dcb6ad4a75de404163347b990a8840,Form,2,0,intro,NULL,age,age
1471965283,e5dcb6ad4a75de404163347b990a8840,Form,2,0,intro,NULL,natlang,native language
1471965283,e5dcb6ad4a75de404163347b990a8840,Form,2,0,intro,NULL,state,state
1471965283,e5dcb6ad4a75de404163347b990a8840,Form,2,0,intro,NULL,parentlang,parent's language
1471965283,e5dcb6ad4a75de404163347b990a8840,Form,2,0,intro,NULL,domlang,dominant language
1471965283,e5dcb6ad4a75de404163347b990a8840,Form,2,0,intro,NULL,otherlang,other languages
1471965283,e5dcb6ad4a75de404163347b990a8840,Form,2,0,intro,NULL,gender,male
1471965283,e5dcb6ad4a75de404163347b990a8840,Form,4,0,intro,NULL,question1,space
1471965283,e5dcb6ad4a75de404163347b990a8840,Form,4,0,intro,NULL,question2,silent
1471965283,e5dcb6ad4a75de404163347b990a8840,Form,4,0,intro,NULL,question3,no
1471965283,e5dcb6ad4a75de404163347b990a8840,Form,5,0,intro,NULL,question4,1
1471965283,e5dcb6ad4a75de404163347b990a8840,Form,5,0,intro,NULL,question8,all
1471965283,e5dcb6ad4a75de404163347b990a8840,Form,5,0,intro,NULL,question5,yes
1471965283,e5dcb6ad4a75de404163347b990a8840,Form,5,0,intro,NULL,question6,maximized
# Columns below this comment are as follows:
# 1. Time results were received.
# 2. MD5 hash of participant's IP address.
# 3. Controller name.
# 4. Item number.
# 5. Element number.
# 6. Type.
# 7. Group.
# 8. Word number.
# 9. Word.
# 10. Reading time.
# 11. Newline?
# 12. Sentence (or sentence MD5).
1471965283,e5dcb6ad4a75de404163347b990a8840,DashedSentence,10,0,Practice,NULL,1,This is,431,False,This is just a practice sentence to get you used to the method of presentation.
1471965283,e5dcb6ad4a75de404163347b990a8840,DashedSentence,10,0,Practice,NULL,2,just a practice sentence,509,False,This is just a practice sentence to get you used to the method of presentation.
1471965283,e5dcb6ad4a75de404163347b990a8840,DashedSentence,10,0,Practice,NULL,3,to get you used,465,False,This is just a practice sentence to get you used to the method of presentation.
1471965283,e5dcb6ad4a75de404163347b990a8840,DashedSentence,10,0,Practice,NULL,4,to the method,405,False,This is just a practice sentence to get you used to the method of presentation.
1471965283,e5dcb6ad4a75de404163347b990a8840,DashedSentence,10,0,Practice,NULL,5,of presentation.,686,False,This is just a practice sentence to get you used to the method of presentation.
1471965283,e5dcb6ad4a75de404163347b990a8840,DashedSentence,11,0,Practice,NULL,1,This is,459,False,This is another practice sentence which is longer and a little more complicated than the one you just read.
1471965283,e5dcb6ad4a75de404163347b990a8840,DashedSentence,11,0,Practice,NULL,2,another practice sentence,519,False,This is another practice sentence which is longer and a little more complicated than the one you just read.
1471965283,e5dcb6ad4a75de404163347b990a8840,DashedSentence,11,0,Practice,NULL,3,which is longer,469,False,This is another practice sentence which is longer and a little more complicated than the one you just read.
1471965283,e5dcb6ad4a75de404163347b990a8840,DashedSentence,11,0,Practice,NULL,4,and a little more complicated,516,False,This is another practice sentence which is longer and a little more complicated than the one you just read.
1471965283,e5dcb6ad4a75de404163347b990a8840,DashedSentence,11,0,Practice,NULL,5,than the one,418,False,This is another practice sentence which is longer and a little more complicated than the one you just read.
1471965283,e5dcb6ad4a75de404163347b990a8840,DashedSentence,11,0,Practice,NULL,6,you just read.,431,False,This is another practice sentence which is longer and a little more complicated than the one you just read.
1471965283,e5dcb6ad4a75de404163347b990a8840,DashedSentence,13,0,Practice,NULL,1,Elias,468,False,Elias told Martha that the attractive lifeguard on the pier who is dating Tracy's sister saved a little boy from being swept out to sea by a rip-tide yesterday.
1471965283,e5dcb6ad4a75de404163347b990a8840,DashedSentence,13,0,Practice,NULL,2,told Martha,547,False,Elias told Martha that the attractive lifeguard on the pier who is dating Tracy's sister saved a little boy from being swept out to sea by a rip-tide yesterday.
1471965283,e5dcb6ad4a75de404163347b990a8840,DashedSentence,13,0,Practice,NULL,3,that the attractive lifeguard,430,False,Elias told Martha that the attractive lifeguard on the pier who is dating Tracy's sister saved a little boy from being swept out to sea by a rip-tide yesterday.
1471965283,e5dcb6ad4a75de404163347b990a8840,DashedSentence,13,0,Practice,NULL,4,on the pier,445,False,Elias told Martha that the attractive lifeguard on the pier who is dating Tracy's sister saved a little boy from being swept out to sea by a rip-tide yesterday.
1471965283,e5dcb6ad4a75de404163347b990a8840,DashedSentence,13,0,Practice,NULL,5,who is dating,349,False,Elias told Martha that the attractive lifeguard on the pier who is dating Tracy's sister saved a little boy from being swept out to sea by a rip-tide yesterday.
1471965283,e5dcb6ad4a75de404163347b990a8840,DashedSentence,13,0,Practice,NULL,6,Tracy's sister,358,False,Elias told Martha that the attractive lifeguard on the pier who is dating Tracy's sister saved a little boy from being swept out to sea by a rip-tide yesterday.
1471965283,e5dcb6ad4a75de404163347b990a8840,DashedSentence,13,0,Practice,NULL,7,saved,371,False,Elias told Martha that the attractive lifeguard on the pier who is dating Tracy's sister saved a little boy from being swept out to sea by a rip-tide yesterday.
1471965283,e5dcb6ad4a75de404163347b990a8840,DashedSentence,13,0,Practice,NULL,8,a little boy,459,False,Elias told Martha that the attractive lifeguard on the pier who is dating Tracy's sister saved a little boy from being swept out to sea by a rip-tide yesterday.
1471965283,e5dcb6ad4a75de404163347b990a8840,DashedSentence,13,0,Practice,NULL,9,from being,418,False,Elias told Martha that the attractive lifeguard on the pier who is dating Tracy's sister saved a little boy from being swept out to sea by a rip-tide yesterday.
1471965283,e5dcb6ad4a75de404163347b990a8840,DashedSentence,13,0,Practice,NULL,10,swept out to sea,424,False,Elias told Martha that the attractive lifeguard on the pier who is dating Tracy's sister saved a little boy from being swept out to sea by a rip-tide yesterday.
1471965283,e5dcb6ad4a75de404163347b990a8840,DashedSentence,13,0,Practice,NULL,11,by a rip-tide yesterday.,576,False,Elias told Martha that the attractive lifeguard on the pier who is dating Tracy's sister saved a little boy from being swept out to sea by a rip-tide yesterday.
# The lines below this comment are in groups of 2.
# The formats of the lines in each of these groups are as follows:
#
# Line 1:
#     Col. 1: Time results were received.
#     Col. 2: MD5 hash of participant's IP address.
#     Col. 3: Controller name.
#     Col. 4: Item number.
#     Col. 5: Element number.
#     Col. 6: Type.
#     Col. 7: Group.
#     Col. 8: Question (NULL if none).
#     Col. 9: Answer.
#     Col. 10: Whether or not answer was correct (NULL if N/A).
#     Col. 11: Time taken to answer.
# Line 2:
#     Col. 1: Time results were received.
#     Col. 2: MD5 hash of participant's IP address.
#     Col. 3: Controller name.
#     Col. 4: Item number.
#     Col. 5: Element number.
#     Col. 6: Type.
#     Col. 7: Group.
#     Col. 8: Word number.
#     Col. 9: Word.
#     Col. 10: Reading time.
#     Col. 11: Newline?
#     Col. 12: Sentence (or sentence MD5).
1471965283,e5dcb6ad4a75de404163347b990a8840,Question,14,0,Practice,NULL,How acceptable did you find the sentence?,7,NULL,2544
1471965283,e5dcb6ad4a75de404163347b990a8840,DashedSentence,16,0,Practice,NULL,1,The pop star,415,False,The pop star sang myself hoarse at the concert last night.
# Columns below this comment are as follows:
# 1. Time results were received.
# 2. MD5 hash of participant's IP address.
# 3. Controller name.
# 4. Item number.
# 5. Element number.
# 6. Type.
# 7. Group.
# 8. Word number.
# 9. Word.
# 10. Reading time.
# 11. Newline?
# 12. Sentence (or sentence MD5).
1471965283,e5dcb6ad4a75de404163347b990a8840,DashedSentence,16,0,Practice,NULL,2,sang,406,False,The pop star sang myself hoarse at the concert last night.
1471965283,e5dcb6ad4a75de404163347b990a8840,DashedSentence,16,0,Practice,NULL,3,myself hoarse,468,False,The pop star sang myself hoarse at the concert last night.
1471965283,e5dcb6ad4a75de404163347b990a8840,DashedSentence,16,0,Practice,NULL,4,at the concert,429,False,The pop star sang myself hoarse at the concert last night.
1471965283,e5dcb6ad4a75de404163347b990a8840,DashedSentence,16,0,Practice,NULL,5,last night.,394,False,The pop star sang myself hoarse at the concert last night.
# The lines below this comment are in groups of 2.
# The formats of the lines in each of these groups are as follows:
#
# Line 1:
#     Col. 1: Time results were received.
#     Col. 2: MD5 hash of participant's IP address.
#     Col. 3: Controller name.
#     Col. 4: Item number.
#     Col. 5: Element number.
#     Col. 6: Type.
#     Col. 7: Group.
#     Col. 8: Question (NULL if none).
#     Col. 9: Answer.
#     Col. 10: Whether or not answer was correct (NULL if N/A).
#     Col. 11: Time taken to answer.
# Line 2:
#     Col. 1: Time results were received.
#     Col. 2: MD5 hash of participant's IP address.
#     Col. 3: Controller name.
#     Col. 4: Item number.
#     Col. 5: Element number.
#     Col. 6: Type.
#     Col. 7: Group.
#     Col. 8: Word number.
#     Col. 9: Word.
#     Col. 10: Reading time.
#     Col. 11: Newline?
#     Col. 12: Sentence (or sentence MD5).
1471965283,e5dcb6ad4a75de404163347b990a8840,Question,17,0,Practice,NULL,How acceptable did you find the sentence?,1,NULL,679
1471965283,e5dcb6ad4a75de404163347b990a8840,DashedSentence,19,0,Practice,NULL,1,The kids,353,False,The kids were eating yesterday the string cheese
# Columns below this comment are as follows:
# 1. Time results were received.
# 2. MD5 hash of participant's IP address.
# 3. Controller name.
# 4. Item number.
# 5. Element number.
# 6. Type.
# 7. Group.
# 8. Word number.
# 9. Word.
# 10. Reading time.
# 11. Newline?
# 12. Sentence (or sentence MD5).
1471965283,e5dcb6ad4a75de404163347b990a8840,DashedSentence,19,0,Practice,NULL,2,were eating,430,False,The kids were eating yesterday the string cheese
1471965283,e5dcb6ad4a75de404163347b990a8840,DashedSentence,19,0,Practice,NULL,3,yesterday,393,False,The kids were eating yesterday the string cheese
1471965283,e5dcb6ad4a75de404163347b990a8840,DashedSentence,19,0,Practice,NULL,4,the string cheese,505,False,The kids were eating yesterday the string cheese
# The lines below this comment are in groups of 2.
# The formats of the lines in each of these groups are as follows:
#
# Line 1:
#     Col. 1: Time results were received.
#     Col. 2: MD5 hash of participant's IP address.
#     Col. 3: Controller name.
#     Col. 4: Item number.
#     Col. 5: Element number.
#     Col. 6: Type.
#     Col. 7: Group.
#     Col. 8: Question (NULL if none).
#     Col. 9: Answer.
#     Col. 10: Whether or not answer was correct (NULL if N/A).
#     Col. 11: Time taken to answer.
# Line 2:
#     Col. 1: Time results were received.
#     Col. 2: MD5 hash of participant's IP address.
#     Col. 3: Controller name.
#     Col. 4: Item number.
#     Col. 5: Element number.
#     Col. 6: Type.
#     Col. 7: Group.
#     Col. 8: Word number.
#     Col. 9: Word.
#     Col. 10: Reading time.
#     Col. 11: Newline?
#     Col. 12: Sentence (or sentence MD5).
1471965283,e5dcb6ad4a75de404163347b990a8840,Question,20,0,Practice,NULL,How acceptable did you find the sentence?,4,NULL,1499
1471965283,e5dcb6ad4a75de404163347b990a8840,DashedSentence,22,0,Practice,NULL,1,The plumber,376,False,The plumber working in the bathroom cursed himself for forgetting his wrench.
# Columns below this comment are as follows:
# 1. Time results were received.
# 2. MD5 hash of participant's IP address.
# 3. Controller name.
# 4. Item number.
# 5. Element number.
# 6. Type.
# 7. Group.
# 8. Word number.
# 9. Word.
# 10. Reading time.
# 11. Newline?
# 12. Sentence (or sentence MD5).
1471965283,e5dcb6ad4a75de404163347b990a8840,DashedSentence,22,0,Practice,NULL,2,working in the bathroom,527,False,The plumber working in the bathroom cursed himself for forgetting his wrench.
1471965283,e5dcb6ad4a75de404163347b990a8840,DashedSentence,22,0,Practice,NULL,3,cursed himself,407,False,The plumber working in the bathroom cursed himself for forgetting his wrench.
1471965283,e5dcb6ad4a75de404163347b990a8840,DashedSentence,22,0,Practice,NULL,4,for forgetting,464,False,The plumber working in the bathroom cursed himself for forgetting his wrench.
1471965283,e5dcb6ad4a75de404163347b990a8840,DashedSentence,22,0,Practice,NULL,5,his wrench.,431,False,The plumber working in the bathroom cursed himself for forgetting his wrench.
# The lines below this comment are in groups of 2.
# The formats of the lines in each of these groups are as follows:
#
# Line 1:
#     Col. 1: Time results were received.
#     Col. 2: MD5 hash of participant's IP address.
#     Col. 3: Controller name.
#     Col. 4: Item number.
#     Col. 5: Element number.
#     Col. 6: Type.
#     Col. 7: Group.
#     Col. 8: Question (NULL if none).
#     Col. 9: Answer.
#     Col. 10: Whether or not answer was correct (NULL if N/A).
#     Col. 11: Time taken to answer.
# Line 2:
#     Col. 1: Time results were received.
#     Col. 2: MD5 hash of participant's IP address.
#     Col. 3: Controller name.
#     Col. 4: Item number.
#     Col. 5: Element number.
#     Col. 6: Type.
#     Col. 7: Group.
#     Col. 8: Word number.
#     Col. 9: Word.
#     Col. 10: Reading time.
#     Col. 11: Newline?
#     Col. 12: Sentence (or sentence MD5).
1471965283,e5dcb6ad4a75de404163347b990a8840,Question,23,0,Practice,NULL,How acceptable did you find the sentence?,7,NULL,1462
1471965283,e5dcb6ad4a75de404163347b990a8840,DashedSentence,443,0,filler,72,1,The bartender,486,False,The bartender at the old pub that opened in 1833 supposedly couldn't find anyone to buy the old stools.
# Columns below this comment are as follows:
# 1. Time results were received.
# 2. MD5 hash of participant's IP address.
# 3. Controller name.
# 4. Item number.
# 5. Element number.
# 6. Type.
# 7. Group.
# 8. Word number.
# 9. Word.
# 10. Reading time.
# 11. Newline?
# 12. Sentence (or sentence MD5).
1471965283,e5dcb6ad4a75de404163347b990a8840,DashedSentence,443,0,filler,72,2,at the old pub,530,False,The bartender at the old pub that opened in 1833 supposedly couldn't find anyone to buy the old stools.
1471965283,e5dcb6ad4a75de404163347b990a8840,DashedSentence,443,0,filler,72,3,that opened in 1833,599,False,The bartender at the old pub that opened in 1833 supposedly couldn't find anyone to buy the old stools.
1471965283,e5dcb6ad4a75de404163347b990a8840,DashedSentence,443,0,filler,72,4,supposedly couldn't find anyone,839,False,The bartender at the old pub that opened in 1833 supposedly couldn't find anyone to buy the old stools.
1471965283,e5dcb6ad4a75de404163347b990a8840,DashedSentence,443,0,filler,72,5,to buy the old stools.,931,False,The bartender at the old pub that opened in 1833 supposedly couldn't find anyone to buy the old stools.
# The lines below this comment are in groups of 2.
# The formats of the lines in each of these groups are as follows:
#
# Line 1:
#     Col. 1: Time results were received.
#     Col. 2: MD5 hash of participant's IP address.
#     Col. 3: Controller name.
#     Col. 4: Item number.
#     Col. 5: Element number.
#     Col. 6: Type.
#     Col. 7: Group.
#     Col. 8: Question (NULL if none).
#     Col. 9: Answer.
#     Col. 10: Whether or not answer was correct (NULL if N/A).
#     Col. 11: Time taken to answer.
# Line 2:
#     Col. 1: Time results were received.
#     Col. 2: MD5 hash of participant's IP address.
#     Col. 3: Controller name.
#     Col. 4: Item number.
#     Col. 5: Element number.
#     Col. 6: Type.
#     Col. 7: Group.
#     Col. 8: Word number.
#     Col. 9: Word.
#     Col. 10: Reading time.
#     Col. 11: Newline?
#     Col. 12: Sentence (or sentence MD5).
1471965283,e5dcb6ad4a75de404163347b990a8840,Question,443,1,filler,72,How acceptable did you find the sentence?,1,NULL,1719
1471965283,e5dcb6ad4a75de404163347b990a8840,DashedSentence,274,0,cond-G,30,1,The senator,407,False,The senator with the student apparently promise to decrease unemployment in the next two years.
# Columns below this comment are as follows:
# 1. Time results were received.
# 2. MD5 hash of participant's IP address.
# 3. Controller name.
# 4. Item number.
# 5. Element number.
# 6. Type.
# 7. Group.
# 8. Word number.
# 9. Word.
# 10. Reading time.
# 11. Newline?
# 12. Sentence (or sentence MD5).
1471965283,e5dcb6ad4a75de404163347b990a8840,DashedSentence,274,0,cond-G,30,2,with the student,442,False,The senator with the student apparently promise to decrease unemployment in the next two years.
1471965283,e5dcb6ad4a75de404163347b990a8840,DashedSentence,274,0,cond-G,30,3,apparently promise,436,False,The senator with the student apparently promise to decrease unemployment in the next two years.
1471965283,e5dcb6ad4a75de404163347b990a8840,DashedSentence,274,0,cond-G,30,4,to decrease unemployment,537,False,The senator with the student apparently promise to decrease unemployment in the next two years.
1471965283,e5dcb6ad4a75de404163347b990a8840,DashedSentence,274,0,cond-G,30,5,in the next two years.,397,False,The senator with the student apparently promise to decrease unemployment in the next two years.
# The lines below this comment are in groups of 2.
# The formats of the lines in each of these groups are as follows:
#
# Line 1:
#     Col. 1: Time results were received.
#     Col. 2: MD5 hash of participant's IP address.
#     Col. 3: Controller name.
#     Col. 4: Item number.
#     Col. 5: Element number.
#     Col. 6: Type.
#     Col. 7: Group.
#     Col. 8: Question (NULL if none).
#     Col. 9: Answer.
#     Col. 10: Whether or not answer was correct (NULL if N/A).
#     Col. 11: Time taken to answer.
# Line 2:
#     Col. 1: Time results were received.
#     Col. 2: MD5 hash of participant's IP address.
#     Col. 3: Controller name.
#     Col. 4: Item number.
#     Col. 5: Element number.
#     Col. 6: Type.
#     Col. 7: Group.
#     Col. 8: Word number.
#     Col. 9: Word.
#     Col. 10: Reading time.
#     Col. 11: Newline?
#     Col. 12: Sentence (or sentence MD5).
1471965283,e5dcb6ad4a75de404163347b990a8840,Question,274,1,cond-G,30,How acceptable did you find the sentence?,2,NULL,652
1471965283,e5dcb6ad4a75de404163347b990a8840,DashedSentence,433,0,filler,62,1,The programmers,458,False,The programmers that tried to find the bug after the staff meeting supposedly don't have any idea what's wrong.
# Columns below this comment are as follows:
# 1. Time results were received.
# 2. MD5 hash of participant's IP address.
# 3. Controller name.
# 4. Item number.
# 5. Element number.
# 6. Type.
# 7. Group.
# 8. Word number.
# 9. Word.
# 10. Reading time.
# 11. Newline?
# 12. Sentence (or sentence MD5).
1471965283,e5dcb6ad4a75de404163347b990a8840,DashedSentence,433,0,filler,62,2,that tried to find the bug,356,False,The programmers that tried to find the bug after the staff meeting supposedly don't have any idea what's wrong.
1471965283,e5dcb6ad4a75de404163347b990a8840,DashedSentence,433,0,filler,62,3,after the staff meeting,351,False,The programmers that tried to find the bug after the staff meeting supposedly don't have any idea what's wrong.
1471965283,e5dcb6ad4a75de404163347b990a8840,DashedSentence,433,0,filler,62,4,supposedly don't have,286,False,The programmers that tried to find the bug after the staff meeting supposedly don't have any idea what's wrong.
1471965283,e5dcb6ad4a75de404163347b990a8840,DashedSentence,433,0,filler,62,5,any idea what's wrong.,297,False,The programmers that tried to find the bug after the staff meeting supposedly don't have any idea what's wrong.
# The lines below this comment are in groups of 2.
# The formats of the lines in each of these groups are as follows:
#
# Line 1:
#     Col. 1: Time results were received.
#     Col. 2: MD5 hash of participant's IP address.
#     Col. 3: Controller name.
#     Col. 4: Item number.
#     Col. 5: Element number.
#     Col. 6: Type.
#     Col. 7: Group.
#     Col. 8: Question (NULL if none).
#     Col. 9: Answer.
#     Col. 10: Whether or not answer was correct (NULL if N/A).
#     Col. 11: Time taken to answer.
# Line 2:
#     Col. 1: Time results were received.
#     Col. 2: MD5 hash of participant's IP address.
#     Col. 3: Controller name.
#     Col. 4: Item number.
#     Col. 5: Element number.
#     Col. 6: Type.
#     Col. 7: Group.
#     Col. 8: Word number.
#     Col. 9: Word.
#     Col. 10: Reading time.
#     Col. 11: Newline?
#     Col. 12: Sentence (or sentence MD5).
1471965283,e5dcb6ad4a75de404163347b990a8840,Question,433,1,filler,62,How acceptable did you find the sentence?,4,NULL,918
1471965283,e5dcb6ad4a75de404163347b990a8840,DashedSentence,366,0,cond-C,42,1,The flower,444,False,The flower that grew near the lake finally have been put on the list of endangered plants.
# Columns below this comment are as follows:
# 1. Time results were received.
# 2. MD5 hash of participant's IP address.
# 3. Controller name.
# 4. Item number.
# 5. Element number.
# 6. Type.
# 7. Group.
# 8. Word number.
# 9. Word.
# 10. Reading time.
# 11. Newline?
# 12. Sentence (or sentence MD5).
1471965283,e5dcb6ad4a75de404163347b990a8840,DashedSentence,366,0,cond-C,42,2,that grew near the lake,738,False,The flower that grew near the lake finally have been put on the list of endangered plants.
1471965283,e5dcb6ad4a75de404163347b990a8840,DashedSentence,366,0,cond-C,42,3,finally have been put,647,False,The flower that grew near the lake finally have been put on the list of endangered plants.
1471965283,e5dcb6ad4a75de404163347b990a8840,DashedSentence,366,0,cond-C,42,4,on the list,701,False,The flower that grew near the lake finally have been put on the list of endangered plants.
1471965283,e5dcb6ad4a75de404163347b990a8840,DashedSentence,366,0,cond-C,42,5,of endangered plants.,592,False,The flower that grew near the lake finally have been put on the list of endangered plants.
# The lines below this comment are in groups of 2.
# The formats of the lines in each of these groups are as follows:
#
# Line 1:
#     Col. 1: Time results were received.
#     Col. 2: MD5 hash of participant's IP address.
#     Col. 3: Controller name.
#     Col. 4: Item number.
#     Col. 5: Element number.
#     Col. 6: Type.
#     Col. 7: Group.
#     Col. 8: Question (NULL if none).
#     Col. 9: Answer.
#     Col. 10: Whether or not answer was correct (NULL if N/A).
#     Col. 11: Time taken to answer.
# Line 2:
#     Col. 1: Time results were received.
#     Col. 2: MD5 hash of participant's IP address.
#     Col. 3: Controller name.
#     Col. 4: Item number.
#     Col. 5: Element number.
#     Col. 6: Type.
#     Col. 7: Group.
#     Col. 8: Word number.
#     Col. 9: Word.
#     Col. 10: Reading time.
#     Col. 11: Newline?
#     Col. 12: Sentence (or sentence MD5).
1471965283,e5dcb6ad4a75de404163347b990a8840,Question,366,1,cond-C,42,How acceptable did you find the sentence?,5,NULL,408
1471965283,e5dcb6ad4a75de404163347b990a8840,DashedSentence,489,0,filler,118,1,The chairman,336,False,The chairman at the meeting that never seemed to end apparently entertained herself by playing cell phone games.
# Columns below this comment are as follows:
# 1. Time results were received.
# 2. MD5 hash of participant's IP address.
# 3. Controller name.
# 4. Item number.
# 5. Element number.
# 6. Type.
# 7. Group.
# 8. Word number.
# 9. Word.
# 10. Reading time.
# 11. Newline?
# 12. Sentence (or sentence MD5).
1471965283,e5dcb6ad4a75de404163347b990a8840,DashedSentence,489,0,filler,118,2,at the meeting,337,False,The chairman at the meeting that never seemed to end apparently entertained herself by playing cell phone games.
1471965283,e5dcb6ad4a75de404163347b990a8840,DashedSentence,489,0,filler,118,3,that never seemed to end,452,False,The chairman at the meeting that never seemed to end apparently entertained herself by playing cell phone games.
1471965283,e5dcb6ad4a75de404163347b990a8840,DashedSentence,489,0,filler,118,4,apparently entertained herself,562,False,The chairman at the meeting that never seemed to end apparently entertained herself by playing cell phone games.
1471965283,e5dcb6ad4a75de404163347b990a8840,DashedSentence,489,0,filler,118,5,by playing cell phone games.,605,False,The chairman at the meeting that never seemed to end apparently entertained herself by playing cell phone games.
# The lines below this comment are in groups of 2.
# The formats of the lines in each of these groups are as follows:
#
# Line 1:
#     Col. 1: Time results were received.
#     Col. 2: MD5 hash of participant's IP address.
#     Col. 3: Controller name.
#     Col. 4: Item number.
#     Col. 5: Element number.
#     Col. 6: Type.
#     Col. 7: Group.
#     Col. 8: Question (NULL if none).
#     Col. 9: Answer.
#     Col. 10: Whether or not answer was correct (NULL if N/A).
#     Col. 11: Time taken to answer.
# Line 2:
#     Col. 1: Time results were received.
#     Col. 2: MD5 hash of participant's IP address.
#     Col. 3: Controller name.
#     Col. 4: Item number.
#     Col. 5: Element number.
#     Col. 6: Type.
#     Col. 7: Group.
#     Col. 8: Word number.
#     Col. 9: Word.
#     Col. 10: Reading time.
#     Col. 11: Newline?
#     Col. 12: Sentence (or sentence MD5).
1471965283,e5dcb6ad4a75de404163347b990a8840,Question,489,1,filler,118,How acceptable did you find the sentence?,1,NULL,932
1471965283,e5dcb6ad4a75de404163347b990a8840,DashedSentence,482,0,filler,111,1,The mailman,347,False,The mailman that delivered to the same neighborhood for 10 years finally retired and bought herself a boat.
# Columns below this comment are as follows:
# 1. Time results were received.
# 2. MD5 hash of participant's IP address.
# 3. Controller name.
# 4. Item number.
# 5. Element number.
# 6. Type.
# 7. Group.
# 8. Word number.
# 9. Word.
# 10. Reading time.
# 11. Newline?
# 12. Sentence (or sentence MD5).
1471965283,e5dcb6ad4a75de404163347b990a8840,DashedSentence,482,0,filler,111,2,that delivered to the same neighborhood,320,False,The mailman that delivered to the same neighborhood for 10 years finally retired and bought herself a boat.
1471965283,e5dcb6ad4a75de404163347b990a8840,DashedSentence,482,0,filler,111,3,for 10 years,379,False,The mailman that delivered to the same neighborhood for 10 years finally retired and bought herself a boat.
1471965283,e5dcb6ad4a75de404163347b990a8840,DashedSentence,482,0,filler,111,4,finally retired,97,False,The mailman that delivered to the same neighborhood for 10 years finally retired and bought herself a boat.
1471965283,e5dcb6ad4a75de404163347b990a8840,DashedSentence,482,0,filler,111,5,and bought herself a boat.,264,False,The mailman that delivered to the same neighborhood for 10 years finally retired and bought herself a boat.
# The lines below this comment are in groups of 2.
# The formats of the lines in each of these groups are as follows:
#
# Line 1:
#     Col. 1: Time results were received.
#     Col. 2: MD5 hash of participant's IP address.
#     Col. 3: Controller name.
#     Col. 4: Item number.
#     Col. 5: Element number.
#     Col. 6: Type.
#     Col. 7: Group.
#     Col. 8: Question (NULL if none).
#     Col. 9: Answer.
#     Col. 10: Whether or not answer was correct (NULL if N/A).
#     Col. 11: Time taken to answer.
# Line 2:
#     Col. 1: Time results were received.
#     Col. 2: MD5 hash of participant's IP address.
#     Col. 3: Controller name.
#     Col. 4: Item number.
#     Col. 5: Element number.
#     Col. 6: Type.
#     Col. 7: Group.
#     Col. 8: Word number.
#     Col. 9: Word.
#     Col. 10: Reading time.
#     Col. 11: Newline?
#     Col. 12: Sentence (or sentence MD5).
1471965283,e5dcb6ad4a75de404163347b990a8840,Question,482,1,filler,111,How acceptable did you find the sentence?,2,NULL,521
1471965283,e5dcb6ad4a75de404163347b990a8840,DashedSentence,137,0,cond-F,13,1,The publicist,527,False,The publicist behind the politicians apparently was nodding at every word in the monumental speech.
# Columns below this comment are as follows:
# 1. Time results were received.
# 2. MD5 hash of participant's IP address.
# 3. Controller name.
# 4. Item number.
# 5. Element number.
# 6. Type.
# 7. Group.
# 8. Word number.
# 9. Word.
# 10. Reading time.
# 11. Newline?
# 12. Sentence (or sentence MD5).
1471965283,e5dcb6ad4a75de404163347b990a8840,DashedSentence,137,0,cond-F,13,2,behind the politicians,577,False,The publicist behind the politicians apparently was nodding at every word in the monumental speech.
1471965283,e5dcb6ad4a75de404163347b990a8840,DashedSentence,137,0,cond-F,13,3,apparently was nodding,551,False,The publicist behind the politicians apparently was nodding at every word in the monumental speech.
1471965283,e5dcb6ad4a75de404163347b990a8840,DashedSentence,137,0,cond-F,13,4,at every word,536,False,The publicist behind the politicians apparently was nodding at every word in the monumental speech.
1471965283,e5dcb6ad4a75de404163347b990a8840,DashedSentence,137,0,cond-F,13,5,in the monumental speech.,479,False,The publicist behind the politicians apparently was nodding at every word in the monumental speech.
# The lines below this comment are in groups of 2.
# The formats of the lines in each of these groups are as follows:
#
# Line 1:
#     Col. 1: Time results were received.
#     Col. 2: MD5 hash of participant's IP address.
#     Col. 3: Controller name.
#     Col. 4: Item number.
#     Col. 5: Element number.
#     Col. 6: Type.
#     Col. 7: Group.
#     Col. 8: Question (NULL if none).
#     Col. 9: Answer.
#     Col. 10: Whether or not answer was correct (NULL if N/A).
#     Col. 11: Time taken to answer.
# Line 2:
#     Col. 1: Time results were received.
#     Col. 2: MD5 hash of participant's IP address.
#     Col. 3: Controller name.
#     Col. 4: Item number.
#     Col. 5: Element number.
#     Col. 6: Type.
#     Col. 7: Group.
#     Col. 8: Word number.
#     Col. 9: Word.
#     Col. 10: Reading time.
#     Col. 11: Newline?
#     Col. 12: Sentence (or sentence MD5).
1471965283,e5dcb6ad4a75de404163347b990a8840,Question,137,1,cond-F,13,How acceptable did you find the sentence?,3,NULL,596
1471965283,e5dcb6ad4a75de404163347b990a8840,DashedSentence,425,0,filler,54,1,The gifts,666,False,The gifts that came from the ambassador definitely are a diplomatic gesture following the trade agreement.
# Columns below this comment are as follows:
# 1. Time results were received.
# 2. MD5 hash of participant's IP address.
# 3. Controller name.
# 4. Item number.
# 5. Element number.
# 6. Type.
# 7. Group.
# 8. Word number.
# 9. Word.
# 10. Reading time.
# 11. Newline?
# 12. Sentence (or sentence MD5).
1471965283,e5dcb6ad4a75de404163347b990a8840,DashedSentence,425,0,filler,54,2,that came from the ambassador,1006,False,The gifts that came from the ambassador definitely are a diplomatic gesture following the trade agreement.
1471965283,e5dcb6ad4a75de404163347b990a8840,DashedSentence,425,0,filler,54,3,definitely are,1002,False,The gifts that came from the ambassador definitely are a diplomatic gesture following the trade agreement.
1471965283,e5dcb6ad4a75de404163347b990a8840,DashedSentence,425,0,filler,54,4,a diplomatic gesture,552,False,The gifts that came from the ambassador definitely are a diplomatic gesture following the trade agreement.
1471965283,e5dcb6ad4a75de404163347b990a8840,DashedSentence,425,0,filler,54,5,following the trade agreement.,845,False,The gifts that came from the ambassador definitely are a diplomatic gesture following the trade agreement.
# The lines below this comment are in groups of 2.
# The formats of the lines in each of these groups are as follows:
#
# Line 1:
#     Col. 1: Time results were received.
#     Col. 2: MD5 hash of participant's IP address.
#     Col. 3: Controller name.
#     Col. 4: Item number.
#     Col. 5: Element number.
#     Col. 6: Type.
#     Col. 7: Group.
#     Col. 8: Question (NULL if none).
#     Col. 9: Answer.
#     Col. 10: Whether or not answer was correct (NULL if N/A).
#     Col. 11: Time taken to answer.
# Line 2:
#     Col. 1: Time results were received.
#     Col. 2: MD5 hash of participant's IP address.
#     Col. 3: Controller name.
#     Col. 4: Item number.
#     Col. 5: Element number.
#     Col. 6: Type.
#     Col. 7: Group.
#     Col. 8: Word number.
#     Col. 9: Word.
#     Col. 10: Reading time.
#     Col. 11: Newline?
#     Col. 12: Sentence (or sentence MD5).
1471965283,e5dcb6ad4a75de404163347b990a8840,Question,425,1,filler,54,How acceptable did you find the sentence?,5,NULL,1197
1471965283,e5dcb6ad4a75de404163347b990a8840,DashedSentence,420,0,filler,49,1,The pigeons,698,False,The pigeons on the bench supposedly are eating most of the seeds thrown by the old man.
# Columns below this comment are as follows:
# 1. Time results were received.
# 2. MD5 hash of participant's IP address.
# 3. Controller name.
# 4. Item number.
# 5. Element number.
# 6. Type.
# 7. Group.
# 8. Word number.
# 9. Word.
# 10. Reading time.
# 11. Newline?
# 12. Sentence (or sentence MD5).
1471965283,e5dcb6ad4a75de404163347b990a8840,DashedSentence,420,0,filler,49,2,on the bench,501,False,The pigeons on the bench supposedly are eating most of the seeds thrown by the old man.
1471965283,e5dcb6ad4a75de404163347b990a8840,DashedSentence,420,0,filler,49,3,supposedly are eating,84,False,The pigeons on the bench supposedly are eating most of the seeds thrown by the old man.
1471965283,e5dcb6ad4a75de404163347b990a8840,DashedSentence,420,0,filler,49,4,most of the seeds,83,False,The pigeons on the bench supposedly are eating most of the seeds thrown by the old man.
1471965283,e5dcb6ad4a75de404163347b990a8840,DashedSentence,420,0,filler,49,5,thrown by the old man.,83,False,The pigeons on the bench supposedly are eating most of the seeds thrown by the old man.
# The lines below this comment are in groups of 2.
# The formats of the lines in each of these groups are as follows:
#
# Line 1:
#     Col. 1: Time results were received.
#     Col. 2: MD5 hash of participant's IP address.
#     Col. 3: Controller name.
#     Col. 4: Item number.
#     Col. 5: Element number.
#     Col. 6: Type.
#     Col. 7: Group.
#     Col. 8: Question (NULL if none).
#     Col. 9: Answer.
#     Col. 10: Whether or not answer was correct (NULL if N/A).
#     Col. 11: Time taken to answer.
# Line 2:
#     Col. 1: Time results were received.
#     Col. 2: MD5 hash of participant's IP address.
#     Col. 3: Controller name.
#     Col. 4: Item number.
#     Col. 5: Element number.
#     Col. 6: Type.
#     Col. 7: Group.
#     Col. 8: Word number.
#     Col. 9: Word.
#     Col. 10: Reading time.
#     Col. 11: Newline?
#     Col. 12: Sentence (or sentence MD5).
1471965283,e5dcb6ad4a75de404163347b990a8840,Question,420,1,filler,49,How acceptable did you find the sentence?,3,NULL,1304
1471965283,e5dcb6ad4a75de404163347b990a8840,DashedSentence,384,0,cond-E,44,1,The memo,424,False,The memo from the manager apparently has prompted a big uproar from the staff.
# Columns below this comment are as follows:
# 1. Time results were received.
# 2. MD5 hash of participant's IP address.
# 3. Controller name.
# 4. Item number.
# 5. Element number.
# 6. Type.
# 7. Group.
# 8. Word number.
# 9. Word.
# 10. Reading time.
# 11. Newline?
# 12. Sentence (or sentence MD5).
1471965283,e5dcb6ad4a75de404163347b990a8840,DashedSentence,384,0,cond-E,44,2,from the manager,589,False,The memo from the manager apparently has prompted a big uproar from the staff.
1471965283,e5dcb6ad4a75de404163347b990a8840,DashedSentence,384,0,cond-E,44,3,apparently has prompted,774,False,The memo from the manager apparently has prompted a big uproar from the staff.
1471965283,e5dcb6ad4a75de404163347b990a8840,DashedSentence,384,0,cond-E,44,4,a big uproar,584,False,The memo from the manager apparently has prompted a big uproar from the staff.
1471965283,e5dcb6ad4a75de404163347b990a8840,DashedSentence,384,0,cond-E,44,5,from the staff.,602,False,The memo from the manager apparently has prompted a big uproar from the staff.
# The lines below this comment are in groups of 2.
# The formats of the lines in each of these groups are as follows:
#
# Line 1:
#     Col. 1: Time results were received.
#     Col. 2: MD5 hash of participant's IP address.
#     Col. 3: Controller name.
#     Col. 4: Item number.
#     Col. 5: Element number.
#     Col. 6: Type.
#     Col. 7: Group.
#     Col. 8: Question (NULL if none).
#     Col. 9: Answer.
#     Col. 10: Whether or not answer was correct (NULL if N/A).
#     Col. 11: Time taken to answer.
# Line 2:
#     Col. 1: Time results were received.
#     Col. 2: MD5 hash of participant's IP address.
#     Col. 3: Controller name.
#     Col. 4: Item number.
#     Col. 5: Element number.
#     Col. 6: Type.
#     Col. 7: Group.
#     Col. 8: Word number.
#     Col. 9: Word.
#     Col. 10: Reading time.
#     Col. 11: Newline?
#     Col. 12: Sentence (or sentence MD5).
1471965283,e5dcb6ad4a75de404163347b990a8840,Question,384,1,cond-E,44,How acceptable did you find the sentence?,2,NULL,903
1471965283,e5dcb6ad4a75de404163347b990a8840,DashedSentence,460,0,filler,89,1,The translators,747,False,The translators that worked with the diplomat apparently was hired from an independent contractor in Washington.
# Columns below this comment are as follows:
# 1. Time results were received.
# 2. MD5 hash of participant's IP address.
# 3. Controller name.
# 4. Item number.
# 5. Element number.
# 6. Type.
# 7. Group.
# 8. Word number.
# 9. Word.
# 10. Reading time.
# 11. Newline?
# 12. Sentence (or sentence MD5).
1471965283,e5dcb6ad4a75de404163347b990a8840,DashedSentence,460,0,filler,89,2,that worked with the diplomat,1032,False,The translators that worked with the diplomat apparently was hired from an independent contractor in Washington.
1471965283,e5dcb6ad4a75de404163347b990a8840,DashedSentence,460,0,filler,89,3,apparently was hired,1251,False,The translators that worked with the diplomat apparently was hired from an independent contractor in Washington.
1471965283,e5dcb6ad4a75de404163347b990a8840,DashedSentence,460,0,filler,89,4,from an independent contractor,2005,False,The translators that worked with the diplomat apparently was hired from an independent contractor in Washington.
1471965283,e5dcb6ad4a75de404163347b990a8840,DashedSentence,460,0,filler,89,5,in Washington.,686,False,The translators that worked with the diplomat apparently was hired from an independent contractor in Washington.
# The lines below this comment are in groups of 2.
# The formats of the lines in each of these groups are as follows:
#
# Line 1:
#     Col. 1: Time results were received.
#     Col. 2: MD5 hash of participant's IP address.
#     Col. 3: Controller name.
#     Col. 4: Item number.
#     Col. 5: Element number.
#     Col. 6: Type.
#     Col. 7: Group.
#     Col. 8: Question (NULL if none).
#     Col. 9: Answer.
#     Col. 10: Whether or not answer was correct (NULL if N/A).
#     Col. 11: Time taken to answer.
# Line 2:
#     Col. 1: Time results were received.
#     Col. 2: MD5 hash of participant's IP address.
#     Col. 3: Controller name.
#     Col. 4: Item number.
#     Col. 5: Element number.
#     Col. 6: Type.
#     Col. 7: Group.
#     Col. 8: Word number.
#     Col. 9: Word.
#     Col. 10: Reading time.
#     Col. 11: Newline?
#     Col. 12: Sentence (or sentence MD5).
1471965283,e5dcb6ad4a75de404163347b990a8840,Question,460,1,filler,89,How acceptable did you find the sentence?,6,NULL,1236
1471965283,e5dcb6ad4a75de404163347b990a8840,DashedSentence,156,0,cond-A,16,1,The doctor,655,False,The doctor that sat beside the patient apparently takes a blood sample from everyone over 65.
# Columns below this comment are as follows:
# 1. Time results were received.
# 2. MD5 hash of participant's IP address.
# 3. Controller name.
# 4. Item number.
# 5. Element number.
# 6. Type.
# 7. Group.
# 8. Word number.
# 9. Word.
# 10. Reading time.
# 11. Newline?
# 12. Sentence (or sentence MD5).
1471965283,e5dcb6ad4a75de404163347b990a8840,DashedSentence,156,0,cond-A,16,2,that sat beside the patient,1057,False,The doctor that sat beside the patient apparently takes a blood sample from everyone over 65.
1471965283,e5dcb6ad4a75de404163347b990a8840,DashedSentence,156,0,cond-A,16,3,apparently takes,866,False,The doctor that sat beside the patient apparently takes a blood sample from everyone over 65.
1471965283,e5dcb6ad4a75de404163347b990a8840,DashedSentence,156,0,cond-A,16,4,a blood sample,957,False,The doctor that sat beside the patient apparently takes a blood sample from everyone over 65.
1471965283,e5dcb6ad4a75de404163347b990a8840,DashedSentence,156,0,cond-A,16,5,from everyone over 65.,633,False,The doctor that sat beside the patient apparently takes a blood sample from everyone over 65.
# The lines below this comment are in groups of 2.
# The formats of the lines in each of these groups are as follows:
#
# Line 1:
#     Col. 1: Time results were received.
#     Col. 2: MD5 hash of participant's IP address.
#     Col. 3: Controller name.
#     Col. 4: Item number.
#     Col. 5: Element number.
#     Col. 6: Type.
#     Col. 7: Group.
#     Col. 8: Question (NULL if none).
#     Col. 9: Answer.
#     Col. 10: Whether or not answer was correct (NULL if N/A).
#     Col. 11: Time taken to answer.
# Line 2:
#     Col. 1: Time results were received.
#     Col. 2: MD5 hash of participant's IP address.
#     Col. 3: Controller name.
#     Col. 4: Item number.
#     Col. 5: Element number.
#     Col. 6: Type.
#     Col. 7: Group.
#     Col. 8: Word number.
#     Col. 9: Word.
#     Col. 10: Reading time.
#     Col. 11: Newline?
#     Col. 12: Sentence (or sentence MD5).
1471965283,e5dcb6ad4a75de404163347b990a8840,Question,156,1,cond-A,16,How acceptable did you find the sentence?,3,NULL,1262
1471965283,e5dcb6ad4a75de404163347b990a8840,DashedSentence,474,0,filler,103,1,The curator,555,False,The curator apparently found anywhere to put the new painting in the new modern wing of the museum.
# Columns below this comment are as follows:
# 1. Time results were received.
# 2. MD5 hash of participant's IP address.
# 3. Controller name.
# 4. Item number.
# 5. Element number.
# 6. Type.
# 7. Group.
# 8. Word number.
# 9. Word.
# 10. Reading time.
# 11. Newline?
# 12. Sentence (or sentence MD5).
1471965283,e5dcb6ad4a75de404163347b990a8840,DashedSentence,474,0,filler,103,2,apparently found anywhere,1061,False,The curator apparently found anywhere to put the new painting in the new modern wing of the museum.
1471965283,e5dcb6ad4a75de404163347b990a8840,DashedSentence,474,0,filler,103,3,to put the new painting,695,False,The curator apparently found anywhere to put the new painting in the new modern wing of the museum.
1471965283,e5dcb6ad4a75de404163347b990a8840,DashedSentence,474,0,filler,103,4,in the new modern wing,624,False,The curator apparently found anywhere to put the new painting in the new modern wing of the museum.
1471965283,e5dcb6ad4a75de404163347b990a8840,DashedSentence,474,0,filler,103,5,of the museum.,618,False,The curator apparently found anywhere to put the new painting in the new modern wing of the museum.
# The lines below this comment are in groups of 2.
# The formats of the lines in each of these groups are as follows:
#
# Line 1:
#     Col. 1: Time results were received.
#     Col. 2: MD5 hash of participant's IP address.
#     Col. 3: Controller name.
#     Col. 4: Item number.
#     Col. 5: Element number.
#     Col. 6: Type.
#     Col. 7: Group.
#     Col. 8: Question (NULL if none).
#     Col. 9: Answer.
#     Col. 10: Whether or not answer was correct (NULL if N/A).
#     Col. 11: Time taken to answer.
# Line 2:
#     Col. 1: Time results were received.
#     Col. 2: MD5 hash of participant's IP address.
#     Col. 3: Controller name.
#     Col. 4: Item number.
#     Col. 5: Element number.
#     Col. 6: Type.
#     Col. 7: Group.
#     Col. 8: Word number.
#     Col. 9: Word.
#     Col. 10: Reading time.
#     Col. 11: Newline?
#     Col. 12: Sentence (or sentence MD5).
1471965283,e5dcb6ad4a75de404163347b990a8840,Question,474,1,filler,103,How acceptable did you find the sentence?,1,NULL,1436
1471965283,e5dcb6ad4a75de404163347b990a8840,DashedSentence,256,0,cond-E,28,1,The gatekeeper,615,False,The gatekeeper outside of the mansion apparently sleeps on the job but hasn't been caught yet.
# Columns below this comment are as follows:
# 1. Time results were received.
# 2. MD5 hash of participant's IP address.
# 3. Controller name.
# 4. Item number.
# 5. Element number.
# 6. Type.
# 7. Group.
# 8. Word number.
# 9. Word.
# 10. Reading time.
# 11. Newline?
# 12. Sentence (or sentence MD5).
1471965283,e5dcb6ad4a75de404163347b990a8840,DashedSentence,256,0,cond-E,28,2,outside of the mansion,843,False,The gatekeeper outside of the mansion apparently sleeps on the job but hasn't been caught yet.
1471965283,e5dcb6ad4a75de404163347b990a8840,DashedSentence,256,0,cond-E,28,3,apparently sleeps,637,False,The gatekeeper outside of the mansion apparently sleeps on the job but hasn't been caught yet.
1471965283,e5dcb6ad4a75de404163347b990a8840,DashedSentence,256,0,cond-E,28,4,on the job,757,False,The gatekeeper outside of the mansion apparently sleeps on the job but hasn't been caught yet.
1471965283,e5dcb6ad4a75de404163347b990a8840,DashedSentence,256,0,cond-E,28,5,but hasn't been caught yet.,610,False,The gatekeeper outside of the mansion apparently sleeps on the job but hasn't been caught yet.
# The lines below this comment are in groups of 2.
# The formats of the lines in each of these groups are as follows:
#
# Line 1:
#     Col. 1: Time results were received.
#     Col. 2: MD5 hash of participant's IP address.
#     Col. 3: Controller name.
#     Col. 4: Item number.
#     Col. 5: Element number.
#     Col. 6: Type.
#     Col. 7: Group.
#     Col. 8: Question (NULL if none).
#     Col. 9: Answer.
#     Col. 10: Whether or not answer was correct (NULL if N/A).
#     Col. 11: Time taken to answer.
# Line 2:
#     Col. 1: Time results were received.
#     Col. 2: MD5 hash of participant's IP address.
#     Col. 3: Controller name.
#     Col. 4: Item number.
#     Col. 5: Element number.
#     Col. 6: Type.
#     Col. 7: Group.
#     Col. 8: Word number.
#     Col. 9: Word.
#     Col. 10: Reading time.
#     Col. 11: Newline?
#     Col. 12: Sentence (or sentence MD5).
1471965283,e5dcb6ad4a75de404163347b990a8840,Question,256,1,cond-E,28,How acceptable did you find the sentence?,5,NULL,903
1471965283,e5dcb6ad4a75de404163347b990a8840,DashedSentence,471,0,filler,100,1,The rocking chair,698,False,The rocking chair apparently was wanted by any family member after being passed down through five generations.
# Columns below this comment are as follows:
# 1. Time results were received.
# 2. MD5 hash of participant's IP address.
# 3. Controller name.
# 4. Item number.
# 5. Element number.
# 6. Type.
# 7. Group.
# 8. Word number.
# 9. Word.
# 10. Reading time.
# 11. Newline?
# 12. Sentence (or sentence MD5).
1471965283,e5dcb6ad4a75de404163347b990a8840,DashedSentence,471,0,filler,100,2,apparently was wanted,819,False,The rocking chair apparently was wanted by any family member after being passed down through five generations.
1471965283,e5dcb6ad4a75de404163347b990a8840,DashedSentence,471,0,filler,100,3,by any family member,802,False,The rocking chair apparently was wanted by any family member after being passed down through five generations.
1471965283,e5dcb6ad4a75de404163347b990a8840,DashedSentence,471,0,filler,100,4,after being passed down,646,False,The rocking chair apparently was wanted by any family member after being passed down through five generations.
1471965283,e5dcb6ad4a75de404163347b990a8840,DashedSentence,471,0,filler,100,5,through five generations.,730,False,The rocking chair apparently was wanted by any family member after being passed down through five generations.
# The lines below this comment are in groups of 2.
# The formats of the lines in each of these groups are as follows:
#
# Line 1:
#     Col. 1: Time results were received.
#     Col. 2: MD5 hash of participant's IP address.
#     Col. 3: Controller name.
#     Col. 4: Item number.
#     Col. 5: Element number.
#     Col. 6: Type.
#     Col. 7: Group.
#     Col. 8: Question (NULL if none).
#     Col. 9: Answer.
#     Col. 10: Whether or not answer was correct (NULL if N/A).
#     Col. 11: Time taken to answer.
# Line 2:
#     Col. 1: Time results were received.
#     Col. 2: MD5 hash of participant's IP address.
#     Col. 3: Controller name.
#     Col. 4: Item number.
#     Col. 5: Element number.
#     Col. 6: Type.
#     Col. 7: Group.
#     Col. 8: Word number.
#     Col. 9: Word.
#     Col. 10: Reading time.
#     Col. 11: Newline?
#     Col. 12: Sentence (or sentence MD5).
1471965283,e5dcb6ad4a75de404163347b990a8840,Question,471,1,filler,100,How acceptable did you find the sentence?,1,NULL,699
1471965283,e5dcb6ad4a75de404163347b990a8840,DashedSentence,475,0,filler,104,1,The groundskeeper,598,False,The groundskeeper had ever been working in the gardens of the resort in the English countryside.
# Columns below this comment are as follows:
# 1. Time results were received.
# 2. MD5 hash of participant's IP address.
# 3. Controller name.
# 4. Item number.
# 5. Element number.
# 6. Type.
# 7. Group.
# 8. Word number.
# 9. Word.
# 10. Reading time.
# 11. Newline?
# 12. Sentence (or sentence MD5).
1471965283,e5dcb6ad4a75de404163347b990a8840,DashedSentence,475,0,filler,104,2,had ever been working,1281,False,The groundskeeper had ever been working in the gardens of the resort in the English countryside.
1471965283,e5dcb6ad4a75de404163347b990a8840,DashedSentence,475,0,filler,104,3,in the gardens,651,False,The groundskeeper had ever been working in the gardens of the resort in the English countryside.
1471965283,e5dcb6ad4a75de404163347b990a8840,DashedSentence,475,0,filler,104,4,of the resort,767,False,The groundskeeper had ever been working in the gardens of the resort in the English countryside.
1471965283,e5dcb6ad4a75de404163347b990a8840,DashedSentence,475,0,filler,104,5,in the English countryside.,689,False,The groundskeeper had ever been working in the gardens of the resort in the English countryside.
# The lines below this comment are in groups of 2.
# The formats of the lines in each of these groups are as follows:
#
# Line 1:
#     Col. 1: Time results were received.
#     Col. 2: MD5 hash of participant's IP address.
#     Col. 3: Controller name.
#     Col. 4: Item number.
#     Col. 5: Element number.
#     Col. 6: Type.
#     Col. 7: Group.
#     Col. 8: Question (NULL if none).
#     Col. 9: Answer.
#     Col. 10: Whether or not answer was correct (NULL if N/A).
#     Col. 11: Time taken to answer.
# Line 2:
#     Col. 1: Time results were received.
#     Col. 2: MD5 hash of participant's IP address.
#     Col. 3: Controller name.
#     Col. 4: Item number.
#     Col. 5: Element number.
#     Col. 6: Type.
#     Col. 7: Group.
#     Col. 8: Word number.
#     Col. 9: Word.
#     Col. 10: Reading time.
#     Col. 11: Newline?
#     Col. 12: Sentence (or sentence MD5).
1471965283,e5dcb6ad4a75de404163347b990a8840,Question,475,1,filler,104,How acceptable did you find the sentence?,1,NULL,922
1471965283,e5dcb6ad4a75de404163347b990a8840,DashedSentence,201,0,cond-F,21,1,The farmer,576,False,The farmer in the fields always sows all of the seeds for the growing season.
# Columns below this comment are as follows:
# 1. Time results were received.
# 2. MD5 hash of participant's IP address.
# 3. Controller name.
# 4. Item number.
# 5. Element number.
# 6. Type.
# 7. Group.
# 8. Word number.
# 9. Word.
# 10. Reading time.
# 11. Newline?
# 12. Sentence (or sentence MD5).
1471965283,e5dcb6ad4a75de404163347b990a8840,DashedSentence,201,0,cond-F,21,2,in the fields,796,False,The farmer in the fields always sows all of the seeds for the growing season.
1471965283,e5dcb6ad4a75de404163347b990a8840,DashedSentence,201,0,cond-F,21,3,always sows,769,False,The farmer in the fields always sows all of the seeds for the growing season.
1471965283,e5dcb6ad4a75de404163347b990a8840,DashedSentence,201,0,cond-F,21,4,all of the seeds,827,False,The farmer in the fields always sows all of the seeds for the growing season.
1471965283,e5dcb6ad4a75de404163347b990a8840,DashedSentence,201,0,cond-F,21,5,for the growing season.,708,False,The farmer in the fields always sows all of the seeds for the growing season.
# The lines below this comment are in groups of 2.
# The formats of the lines in each of these groups are as follows:
#
# Line 1:
#     Col. 1: Time results were received.
#     Col. 2: MD5 hash of participant's IP address.
#     Col. 3: Controller name.
#     Col. 4: Item number.
#     Col. 5: Element number.
#     Col. 6: Type.
#     Col. 7: Group.
#     Col. 8: Question (NULL if none).
#     Col. 9: Answer.
#     Col. 10: Whether or not answer was correct (NULL if N/A).
#     Col. 11: Time taken to answer.
# Line 2:
#     Col. 1: Time results were received.
#     Col. 2: MD5 hash of participant's IP address.
#     Col. 3: Controller name.
#     Col. 4: Item number.
#     Col. 5: Element number.
#     Col. 6: Type.
#     Col. 7: Group.
#     Col. 8: Word number.
#     Col. 9: Word.
#     Col. 10: Reading time.
#     Col. 11: Newline?
#     Col. 12: Sentence (or sentence MD5).
1471965283,e5dcb6ad4a75de404163347b990a8840,Question,201,1,cond-F,21,How acceptable did you find the sentence?,5,NULL,1045
1471965283,e5dcb6ad4a75de404163347b990a8840,DashedSentence,430,0,filler,59,1,The keys,526,False,The keys that were lost in the lake supposedly turned up on the shore after a few weeks.
# Columns below this comment are as follows:
# 1. Time results were received.
# 2. MD5 hash of participant's IP address.
# 3. Controller name.
# 4. Item number.
# 5. Element number.
# 6. Type.
# 7. Group.
# 8. Word number.
# 9. Word.
# 10. Reading time.
# 11. Newline?
# 12. Sentence (or sentence MD5).
1471965283,e5dcb6ad4a75de404163347b990a8840,DashedSentence,430,0,filler,59,2,that were lost in the lake,790,False,The keys that were lost in the lake supposedly turned up on the shore after a few weeks.
1471965283,e5dcb6ad4a75de404163347b990a8840,DashedSentence,430,0,filler,59,3,supposedly turned up,872,False,The keys that were lost in the lake supposedly turned up on the shore after a few weeks.
1471965283,e5dcb6ad4a75de404163347b990a8840,DashedSentence,430,0,filler,59,4,on the shore,652,False,The keys that were lost in the lake supposedly turned up on the shore after a few weeks.
1471965283,e5dcb6ad4a75de404163347b990a8840,DashedSentence,430,0,filler,59,5,after a few weeks.,674,False,The keys that were lost in the lake supposedly turned up on the shore after a few weeks.
# The lines below this comment are in groups of 2.
# The formats of the lines in each of these groups are as follows:
#
# Line 1:
#     Col. 1: Time results were received.
#     Col. 2: MD5 hash of participant's IP address.
#     Col. 3: Controller name.
#     Col. 4: Item number.
#     Col. 5: Element number.
#     Col. 6: Type.
#     Col. 7: Group.
#     Col. 8: Question (NULL if none).
#     Col. 9: Answer.
#     Col. 10: Whether or not answer was correct (NULL if N/A).
#     Col. 11: Time taken to answer.
# Line 2:
#     Col. 1: Time results were received.
#     Col. 2: MD5 hash of participant's IP address.
#     Col. 3: Controller name.
#     Col. 4: Item number.
#     Col. 5: Element number.
#     Col. 6: Type.
#     Col. 7: Group.
#     Col. 8: Word number.
#     Col. 9: Word.
#     Col. 10: Reading time.
#     Col. 11: Newline?
#     Col. 12: Sentence (or sentence MD5).
1471965283,e5dcb6ad4a75de404163347b990a8840,Question,430,1,filler,59,How acceptable did you find the sentence?,3,NULL,1163
1471965283,e5dcb6ad4a75de404163347b990a8840,DashedSentence,128,0,cond-E,12,1,The officer,469,False,The officer with the soldier supposedly was angered by the recruits who forgot to make their beds.
# Columns below this comment are as follows:
# 1. Time results were received.
# 2. MD5 hash of participant's IP address.
# 3. Controller name.
# 4. Item number.
# 5. Element number.
# 6. Type.
# 7. Group.
# 8. Word number.
# 9. Word.
# 10. Reading time.
# 11. Newline?
# 12. Sentence (or sentence MD5).
1471965283,e5dcb6ad4a75de404163347b990a8840,DashedSentence,128,0,cond-E,12,2,with the soldier,699,False,The officer with the soldier supposedly was angered by the recruits who forgot to make their beds.
1471965283,e5dcb6ad4a75de404163347b990a8840,DashedSentence,128,0,cond-E,12,3,supposedly was angered,766,False,The officer with the soldier supposedly was angered by the recruits who forgot to make their beds.
1471965283,e5dcb6ad4a75de404163347b990a8840,DashedSentence,128,0,cond-E,12,4,by the recruits,578,False,The officer with the soldier supposedly was angered by the recruits who forgot to make their beds.
1471965283,e5dcb6ad4a75de404163347b990a8840,DashedSentence,128,0,cond-E,12,5,who forgot to make their beds.,540,False,The officer with the soldier supposedly was angered by the recruits who forgot to make their beds.
# The lines below this comment are in groups of 2.
# The formats of the lines in each of these groups are as follows:
#
# Line 1:
#     Col. 1: Time results were received.
#     Col. 2: MD5 hash of participant's IP address.
#     Col. 3: Controller name.
#     Col. 4: Item number.
#     Col. 5: Element number.
#     Col. 6: Type.
#     Col. 7: Group.
#     Col. 8: Question (NULL if none).
#     Col. 9: Answer.
#     Col. 10: Whether or not answer was correct (NULL if N/A).
#     Col. 11: Time taken to answer.
# Line 2:
#     Col. 1: Time results were received.
#     Col. 2: MD5 hash of participant's IP address.
#     Col. 3: Controller name.
#     Col. 4: Item number.
#     Col. 5: Element number.
#     Col. 6: Type.
#     Col. 7: Group.
#     Col. 8: Word number.
#     Col. 9: Word.
#     Col. 10: Reading time.
#     Col. 11: Newline?
#     Col. 12: Sentence (or sentence MD5).
1471965283,e5dcb6ad4a75de404163347b990a8840,Question,128,1,cond-E,12,How acceptable did you find the sentence?,4,NULL,982
1471965283,e5dcb6ad4a75de404163347b990a8840,DashedSentence,441,0,filler,70,1,The contractor,302,False,The contractor for the project that overcharged the homeowners allegedly never gave people a fair price.
# Columns below this comment are as follows:
# 1. Time results were received.
# 2. MD5 hash of participant's IP address.
# 3. Controller name.
# 4. Item number.
# 5. Element number.
# 6. Type.
# 7. Group.
# 8. Word number.
# 9. Word.
# 10. Reading time.
# 11. Newline?
# 12. Sentence (or sentence MD5).
1471965283,e5dcb6ad4a75de404163347b990a8840,DashedSentence,441,0,filler,70,2,for the project,225,False,The contractor for the project that overcharged the homeowners allegedly never gave people a fair price.
1471965283,e5dcb6ad4a75de404163347b990a8840,DashedSentence,441,0,filler,70,3,that overcharged the homeowners,348,False,The contractor for the project that overcharged the homeowners allegedly never gave people a fair price.
1471965283,e5dcb6ad4a75de404163347b990a8840,DashedSentence,441,0,filler,70,4,allegedly never gave people,670,False,The contractor for the project that overcharged the homeowners allegedly never gave people a fair price.
1471965283,e5dcb6ad4a75de404163347b990a8840,DashedSentence,441,0,filler,70,5,a fair price.,494,False,The contractor for the project that overcharged the homeowners allegedly never gave people a fair price.
# The lines below this comment are in groups of 2.
# The formats of the lines in each of these groups are as follows:
#
# Line 1:
#     Col. 1: Time results were received.
#     Col. 2: MD5 hash of participant's IP address.
#     Col. 3: Controller name.
#     Col. 4: Item number.
#     Col. 5: Element number.
#     Col. 6: Type.
#     Col. 7: Group.
#     Col. 8: Question (NULL if none).
#     Col. 9: Answer.
#     Col. 10: Whether or not answer was correct (NULL if N/A).
#     Col. 11: Time taken to answer.
# Line 2:
#     Col. 1: Time results were received.
#     Col. 2: MD5 hash of participant's IP address.
#     Col. 3: Controller name.
#     Col. 4: Item number.
#     Col. 5: Element number.
#     Col. 6: Type.
#     Col. 7: Group.
#     Col. 8: Word number.
#     Col. 9: Word.
#     Col. 10: Reading time.
#     Col. 11: Newline?
#     Col. 12: Sentence (or sentence MD5).
1471965283,e5dcb6ad4a75de404163347b990a8840,Question,441,1,filler,70,How acceptable did you find the sentence?,5,NULL,518
1471965283,e5dcb6ad4a75de404163347b990a8840,DashedSentence,480,0,filler,109,1,The fireman,370,False,The fireman that had been honored in the ceremony always took pride in herself for serving the community.
# Columns below this comment are as follows:
# 1. Time results were received.
# 2. MD5 hash of participant's IP address.
# 3. Controller name.
# 4. Item number.
# 5. Element number.
# 6. Type.
# 7. Group.
# 8. Word number.
# 9. Word.
# 10. Reading time.
# 11. Newline?
# 12. Sentence (or sentence MD5).
1471965283,e5dcb6ad4a75de404163347b990a8840,DashedSentence,480,0,filler,109,2,that had been honored,439,False,The fireman that had been honored in the ceremony always took pride in herself for serving the community.
1471965283,e5dcb6ad4a75de404163347b990a8840,DashedSentence,480,0,filler,109,3,in the ceremony,518,False,The fireman that had been honored in the ceremony always took pride in herself for serving the community.
1471965283,e5dcb6ad4a75de404163347b990a8840,DashedSentence,480,0,filler,109,4,always took pride in herself,808,False,The fireman that had been honored in the ceremony always took pride in herself for serving the community.
1471965283,e5dcb6ad4a75de404163347b990a8840,DashedSentence,480,0,filler,109,5,for serving the community.,617,False,The fireman that had been honored in the ceremony always took pride in herself for serving the community.
# The lines below this comment are in groups of 2.
# The formats of the lines in each of these groups are as follows:
#
# Line 1:
#     Col. 1: Time results were received.
#     Col. 2: MD5 hash of participant's IP address.
#     Col. 3: Controller name.
#     Col. 4: Item number.
#     Col. 5: Element number.
#     Col. 6: Type.
#     Col. 7: Group.
#     Col. 8: Question (NULL if none).
#     Col. 9: Answer.
#     Col. 10: Whether or not answer was correct (NULL if N/A).
#     Col. 11: Time taken to answer.
# Line 2:
#     Col. 1: Time results were received.
#     Col. 2: MD5 hash of participant's IP address.
#     Col. 3: Controller name.
#     Col. 4: Item number.
#     Col. 5: Element number.
#     Col. 6: Type.
#     Col. 7: Group.
#     Col. 8: Word number.
#     Col. 9: Word.
#     Col. 10: Reading time.
#     Col. 11: Newline?
#     Col. 12: Sentence (or sentence MD5).
1471965283,e5dcb6ad4a75de404163347b990a8840,Question,480,1,filler,109,How acceptable did you find the sentence?,1,NULL,453
1471965283,e5dcb6ad4a75de404163347b990a8840,DashedSentence,293,0,cond-B,33,1,The tree,423,False,The tree that fell beside the cars reportedly is being used for a bench that will sit in the neighborhood park.
# Columns below this comment are as follows:
# 1. Time results were received.
# 2. MD5 hash of participant's IP address.
# 3. Controller name.
# 4. Item number.
# 5. Element number.
# 6. Type.
# 7. Group.
# 8. Word number.
# 9. Word.
# 10. Reading time.
# 11. Newline?
# 12. Sentence (or sentence MD5).
1471965283,e5dcb6ad4a75de404163347b990a8840,DashedSentence,293,0,cond-B,33,2,that fell beside the cars,567,False,The tree that fell beside the cars reportedly is being used for a bench that will sit in the neighborhood park.
1471965283,e5dcb6ad4a75de404163347b990a8840,DashedSentence,293,0,cond-B,33,3,reportedly is being used,628,False,The tree that fell beside the cars reportedly is being used for a bench that will sit in the neighborhood park.
1471965283,e5dcb6ad4a75de404163347b990a8840,DashedSentence,293,0,cond-B,33,4,for a bench,591,False,The tree that fell beside the cars reportedly is being used for a bench that will sit in the neighborhood park.
1471965283,e5dcb6ad4a75de404163347b990a8840,DashedSentence,293,0,cond-B,33,5,that will sit in the neighborhood park.,579,False,The tree that fell beside the cars reportedly is being used for a bench that will sit in the neighborhood park.
# The lines below this comment are in groups of 2.
# The formats of the lines in each of these groups are as follows:
#
# Line 1:
#     Col. 1: Time results were received.
#     Col. 2: MD5 hash of participant's IP address.
#     Col. 3: Controller name.
#     Col. 4: Item number.
#     Col. 5: Element number.
#     Col. 6: Type.
#     Col. 7: Group.
#     Col. 8: Question (NULL if none).
#     Col. 9: Answer.
#     Col. 10: Whether or not answer was correct (NULL if N/A).
#     Col. 11: Time taken to answer.
# Line 2:
#     Col. 1: Time results were received.
#     Col. 2: MD5 hash of participant's IP address.
#     Col. 3: Controller name.
#     Col. 4: Item number.
#     Col. 5: Element number.
#     Col. 6: Type.
#     Col. 7: Group.
#     Col. 8: Word number.
#     Col. 9: Word.
#     Col. 10: Reading time.
#     Col. 11: Newline?
#     Col. 12: Sentence (or sentence MD5).
1471965283,e5dcb6ad4a75de404163347b990a8840,Question,293,1,cond-B,33,How acceptable did you find the sentence?,6,NULL,1491
1471965283,e5dcb6ad4a75de404163347b990a8840,DashedSentence,453,0,filler,82,1,The commander,549,False,The commander of the unit that had completed the mission evidently was proud of himself for the success.
# Columns below this comment are as follows:
# 1. Time results were received.
# 2. MD5 hash of participant's IP address.
# 3. Controller name.
# 4. Item number.
# 5. Element number.
# 6. Type.
# 7. Group.
# 8. Word number.
# 9. Word.
# 10. Reading time.
# 11. Newline?
# 12. Sentence (or sentence MD5).
1471965283,e5dcb6ad4a75de404163347b990a8840,DashedSentence,453,0,filler,82,2,of the unit,545,False,The commander of the unit that had completed the mission evidently was proud of himself for the success.
1471965283,e5dcb6ad4a75de404163347b990a8840,DashedSentence,453,0,filler,82,3,that had completed the mission,797,False,The commander of the unit that had completed the mission evidently was proud of himself for the success.
1471965283,e5dcb6ad4a75de404163347b990a8840,DashedSentence,453,0,filler,82,4,evidently was proud of himself,932,False,The commander of the unit that had completed the mission evidently was proud of himself for the success.
1471965283,e5dcb6ad4a75de404163347b990a8840,DashedSentence,453,0,filler,82,5,for the success.,641,False,The commander of the unit that had completed the mission evidently was proud of himself for the success.
# The lines below this comment are in groups of 2.
# The formats of the lines in each of these groups are as follows:
#
# Line 1:
#     Col. 1: Time results were received.
#     Col. 2: MD5 hash of participant's IP address.
#     Col. 3: Controller name.
#     Col. 4: Item number.
#     Col. 5: Element number.
#     Col. 6: Type.
#     Col. 7: Group.
#     Col. 8: Question (NULL if none).
#     Col. 9: Answer.
#     Col. 10: Whether or not answer was correct (NULL if N/A).
#     Col. 11: Time taken to answer.
# Line 2:
#     Col. 1: Time results were received.
#     Col. 2: MD5 hash of participant's IP address.
#     Col. 3: Controller name.
#     Col. 4: Item number.
#     Col. 5: Element number.
#     Col. 6: Type.
#     Col. 7: Group.
#     Col. 8: Word number.
#     Col. 9: Word.
#     Col. 10: Reading time.
#     Col. 11: Newline?
#     Col. 12: Sentence (or sentence MD5).
1471965283,e5dcb6ad4a75de404163347b990a8840,Question,453,1,filler,82,How acceptable did you find the sentence?,5,NULL,1614
1471965283,e5dcb6ad4a75de404163347b990a8840,DashedSentence,465,0,filler,94,1,The recruiters,600,False,The recruiters that goes to the high school football game supposedly found a new player for next year.
# Columns below this comment are as follows:
# 1. Time results were received.
# 2. MD5 hash of participant's IP address.
# 3. Controller name.
# 4. Item number.
# 5. Element number.
# 6. Type.
# 7. Group.
# 8. Word number.
# 9. Word.
# 10. Reading time.
# 11. Newline?
# 12. Sentence (or sentence MD5).
1471965283,e5dcb6ad4a75de404163347b990a8840,DashedSentence,465,0,filler,94,2,that goes to the high school football game,2235,False,The recruiters that goes to the high school football game supposedly found a new player for next year.
1471965283,e5dcb6ad4a75de404163347b990a8840,DashedSentence,465,0,filler,94,3,supposedly found,943,False,The recruiters that goes to the high school football game supposedly found a new player for next year.
1471965283,e5dcb6ad4a75de404163347b990a8840,DashedSentence,465,0,filler,94,4,a new player,758,False,The recruiters that goes to the high school football game supposedly found a new player for next year.
1471965283,e5dcb6ad4a75de404163347b990a8840,DashedSentence,465,0,filler,94,5,for next year.,574,False,The recruiters that goes to the high school football game supposedly found a new player for next year.
# The lines below this comment are in groups of 2.
# The formats of the lines in each of these groups are as follows:
#
# Line 1:
#     Col. 1: Time results were received.
#     Col. 2: MD5 hash of participant's IP address.
#     Col. 3: Controller name.
#     Col. 4: Item number.
#     Col. 5: Element number.
#     Col. 6: Type.
#     Col. 7: Group.
#     Col. 8: Question (NULL if none).
#     Col. 9: Answer.
#     Col. 10: Whether or not answer was correct (NULL if N/A).
#     Col. 11: Time taken to answer.
# Line 2:
#     Col. 1: Time results were received.
#     Col. 2: MD5 hash of participant's IP address.
#     Col. 3: Controller name.
#     Col. 4: Item number.
#     Col. 5: Element number.
#     Col. 6: Type.
#     Col. 7: Group.
#     Col. 8: Word number.
#     Col. 9: Word.
#     Col. 10: Reading time.
#     Col. 11: Newline?
#     Col. 12: Sentence (or sentence MD5).
1471965283,e5dcb6ad4a75de404163347b990a8840,Question,465,1,filler,94,How acceptable did you find the sentence?,1,NULL,1577
1471965283,e5dcb6ad4a75de404163347b990a8840,DashedSentence,348,0,cond-A,40,1,The firefighter,806,False,The firefighter that consulted with the ranger apparently is going to the wildfire to try to save the lost hikers.
# Columns below this comment are as follows:
# 1. Time results were received.
# 2. MD5 hash of participant's IP address.
# 3. Controller name.
# 4. Item number.
# 5. Element number.
# 6. Type.
# 7. Group.
# 8. Word number.
# 9. Word.
# 10. Reading time.
# 11. Newline?
# 12. Sentence (or sentence MD5).
1471965283,e5dcb6ad4a75de404163347b990a8840,DashedSentence,348,0,cond-A,40,2,that consulted with the ranger,1212,False,The firefighter that consulted with the ranger apparently is going to the wildfire to try to save the lost hikers.
1471965283,e5dcb6ad4a75de404163347b990a8840,DashedSentence,348,0,cond-A,40,3,apparently is going,873,False,The firefighter that consulted with the ranger apparently is going to the wildfire to try to save the lost hikers.
1471965283,e5dcb6ad4a75de404163347b990a8840,DashedSentence,348,0,cond-A,40,4,to the wildfire,720,False,The firefighter that consulted with the ranger apparently is going to the wildfire to try to save the lost hikers.
1471965283,e5dcb6ad4a75de404163347b990a8840,DashedSentence,348,0,cond-A,40,5,to try to save the lost hikers.,1320,False,The firefighter that consulted with the ranger apparently is going to the wildfire to try to save the lost hikers.
# The lines below this comment are in groups of 2.
# The formats of the lines in each of these groups are as follows:
#
# Line 1:
#     Col. 1: Time results were received.
#     Col. 2: MD5 hash of participant's IP address.
#     Col. 3: Controller name.
#     Col. 4: Item number.
#     Col. 5: Element number.
#     Col. 6: Type.
#     Col. 7: Group.
#     Col. 8: Question (NULL if none).
#     Col. 9: Answer.
#     Col. 10: Whether or not answer was correct (NULL if N/A).
#     Col. 11: Time taken to answer.
# Line 2:
#     Col. 1: Time results were received.
#     Col. 2: MD5 hash of participant's IP address.
#     Col. 3: Controller name.
#     Col. 4: Item number.
#     Col. 5: Element number.
#     Col. 6: Type.
#     Col. 7: Group.
#     Col. 8: Word number.
#     Col. 9: Word.
#     Col. 10: Reading time.
#     Col. 11: Newline?
#     Col. 12: Sentence (or sentence MD5).
1471965283,e5dcb6ad4a75de404163347b990a8840,Question,348,1,cond-A,40,How acceptable did you find the sentence?,6,NULL,1544
1471965283,e5dcb6ad4a75de404163347b990a8840,DashedSentence,429,0,filler,58,1,The spies,961,False,The spies that are snooping in the office apparently found a secret document describing the military plans.
# Columns below this comment are as follows:
# 1. Time results were received.
# 2. MD5 hash of participant's IP address.
# 3. Controller name.
# 4. Item number.
# 5. Element number.
# 6. Type.
# 7. Group.
# 8. Word number.
# 9. Word.
# 10. Reading time.
# 11. Newline?
# 12. Sentence (or sentence MD5).
1471965283,e5dcb6ad4a75de404163347b990a8840,DashedSentence,429,0,filler,58,2,that are snooping in the office,1136,False,The spies that are snooping in the office apparently found a secret document describing the military plans.
1471965283,e5dcb6ad4a75de404163347b990a8840,DashedSentence,429,0,filler,58,3,apparently found,864,False,The spies that are snooping in the office apparently found a secret document describing the military plans.
1471965283,e5dcb6ad4a75de404163347b990a8840,DashedSentence,429,0,filler,58,4,a secret document,792,False,The spies that are snooping in the office apparently found a secret document describing the military plans.
1471965283,e5dcb6ad4a75de404163347b990a8840,DashedSentence,429,0,filler,58,5,describing the military plans.,956,False,The spies that are snooping in the office apparently found a secret document describing the military plans.
# The lines below this comment are in groups of 2.
# The formats of the lines in each of these groups are as follows:
#
# Line 1:
#     Col. 1: Time results were received.
#     Col. 2: MD5 hash of participant's IP address.
#     Col. 3: Controller name.
#     Col. 4: Item number.
#     Col. 5: Element number.
#     Col. 6: Type.
#     Col. 7: Group.
#     Col. 8: Question (NULL if none).
#     Col. 9: Answer.
#     Col. 10: Whether or not answer was correct (NULL if N/A).
#     Col. 11: Time taken to answer.
# Line 2:
#     Col. 1: Time results were received.
#     Col. 2: MD5 hash of participant's IP address.
#     Col. 3: Controller name.
#     Col. 4: Item number.
#     Col. 5: Element number.
#     Col. 6: Type.
#     Col. 7: Group.
#     Col. 8: Word number.
#     Col. 9: Word.
#     Col. 10: Reading time.
#     Col. 11: Newline?
#     Col. 12: Sentence (or sentence MD5).
1471965283,e5dcb6ad4a75de404163347b990a8840,Question,429,1,filler,58,How acceptable did you find the sentence?,6,NULL,1481
1471965283,e5dcb6ad4a75de404163347b990a8840,DashedSentence,46,0,cond-C,2,1,The truck,596,False,The truck that parked beside the motorcycle apparently were refurbished by the collector over the summer.
# Columns below this comment are as follows:
# 1. Time results were received.
# 2. MD5 hash of participant's IP address.
# 3. Controller name.
# 4. Item number.
# 5. Element number.
# 6. Type.
# 7. Group.
# 8. Word number.
# 9. Word.
# 10. Reading time.
# 11. Newline?
# 12. Sentence (or sentence MD5).
1471965283,e5dcb6ad4a75de404163347b990a8840,DashedSentence,46,0,cond-C,2,2,that parked beside the motorcycle,684,False,The truck that parked beside the motorcycle apparently were refurbished by the collector over the summer.
1471965283,e5dcb6ad4a75de404163347b990a8840,DashedSentence,46,0,cond-C,2,3,apparently were refurbished,865,False,The truck that parked beside the motorcycle apparently were refurbished by the collector over the summer.
1471965283,e5dcb6ad4a75de404163347b990a8840,DashedSentence,46,0,cond-C,2,4,by the collector,1783,False,The truck that parked beside the motorcycle apparently were refurbished by the collector over the summer.
1471965283,e5dcb6ad4a75de404163347b990a8840,DashedSentence,46,0,cond-C,2,5,over the summer.,618,False,The truck that parked beside the motorcycle apparently were refurbished by the collector over the summer.
# The lines below this comment are in groups of 2.
# The formats of the lines in each of these groups are as follows:
#
# Line 1:
#     Col. 1: Time results were received.
#     Col. 2: MD5 hash of participant's IP address.
#     Col. 3: Controller name.
#     Col. 4: Item number.
#     Col. 5: Element number.
#     Col. 6: Type.
#     Col. 7: Group.
#     Col. 8: Question (NULL if none).
#     Col. 9: Answer.
#     Col. 10: Whether or not answer was correct (NULL if N/A).
#     Col. 11: Time taken to answer.
# Line 2:
#     Col. 1: Time results were received.
#     Col. 2: MD5 hash of participant's IP address.
#     Col. 3: Controller name.
#     Col. 4: Item number.
#     Col. 5: Element number.
#     Col. 6: Type.
#     Col. 7: Group.
#     Col. 8: Word number.
#     Col. 9: Word.
#     Col. 10: Reading time.
#     Col. 11: Newline?
#     Col. 12: Sentence (or sentence MD5).
1471965283,e5dcb6ad4a75de404163347b990a8840,Question,46,1,cond-C,2,How acceptable did you find the sentence?,3,NULL,1643
1471965283,e5dcb6ad4a75de404163347b990a8840,DashedSentence,469,0,filler,98,1,The lampshade,795,False,The lampshade that had been purchased from Ikea supposedly was anywhere in the closet.
# Columns below this comment are as follows:
# 1. Time results were received.
# 2. MD5 hash of participant's IP address.
# 3. Controller name.
# 4. Item number.
# 5. Element number.
# 6. Type.
# 7. Group.
# 8. Word number.
# 9. Word.
# 10. Reading time.
# 11. Newline?
# 12. Sentence (or sentence MD5).
1471965283,e5dcb6ad4a75de404163347b990a8840,DashedSentence,469,0,filler,98,2,that had been purchased,978,False,The lampshade that had been purchased from Ikea supposedly was anywhere in the closet.
1471965283,e5dcb6ad4a75de404163347b990a8840,DashedSentence,469,0,filler,98,3,from Ikea,863,False,The lampshade that had been purchased from Ikea supposedly was anywhere in the closet.
1471965283,e5dcb6ad4a75de404163347b990a8840,DashedSentence,469,0,filler,98,4,supposedly was anywhere,977,False,The lampshade that had been purchased from Ikea supposedly was anywhere in the closet.
1471965283,e5dcb6ad4a75de404163347b990a8840,DashedSentence,469,0,filler,98,5,in the closet.,720,False,The lampshade that had been purchased from Ikea supposedly was anywhere in the closet.
# The lines below this comment are in groups of 2.
# The formats of the lines in each of these groups are as follows:
#
# Line 1:
#     Col. 1: Time results were received.
#     Col. 2: MD5 hash of participant's IP address.
#     Col. 3: Controller name.
#     Col. 4: Item number.
#     Col. 5: Element number.
#     Col. 6: Type.
#     Col. 7: Group.
#     Col. 8: Question (NULL if none).
#     Col. 9: Answer.
#     Col. 10: Whether or not answer was correct (NULL if N/A).
#     Col. 11: Time taken to answer.
# Line 2:
#     Col. 1: Time results were received.
#     Col. 2: MD5 hash of participant's IP address.
#     Col. 3: Controller name.
#     Col. 4: Item number.
#     Col. 5: Element number.
#     Col. 6: Type.
#     Col. 7: Group.
#     Col. 8: Word number.
#     Col. 9: Word.
#     Col. 10: Reading time.
#     Col. 11: Newline?
#     Col. 12: Sentence (or sentence MD5).
1471965283,e5dcb6ad4a75de404163347b990a8840,Question,469,1,filler,98,How acceptable did you find the sentence?,1,NULL,744
1471965283,e5dcb6ad4a75de404163347b990a8840,DashedSentence,477,0,filler,106,1,The teenagers,1819,False,The teenagers at the beach party that had been organized by the school apparently wanted to stay anymore.
# Columns below this comment are as follows:
# 1. Time results were received.
# 2. MD5 hash of participant's IP address.
# 3. Controller name.
# 4. Item number.
# 5. Element number.
# 6. Type.
# 7. Group.
# 8. Word number.
# 9. Word.
# 10. Reading time.
# 11. Newline?
# 12. Sentence (or sentence MD5).
1471965283,e5dcb6ad4a75de404163347b990a8840,DashedSentence,477,0,filler,106,2,at the beach party,1100,False,The teenagers at the beach party that had been organized by the school apparently wanted to stay anymore.
1471965283,e5dcb6ad4a75de404163347b990a8840,DashedSentence,477,0,filler,106,3,that had been organized by the school,1242,False,The teenagers at the beach party that had been organized by the school apparently wanted to stay anymore.
1471965283,e5dcb6ad4a75de404163347b990a8840,DashedSentence,477,0,filler,106,4,apparently wanted,813,False,The teenagers at the beach party that had been organized by the school apparently wanted to stay anymore.
1471965283,e5dcb6ad4a75de404163347b990a8840,DashedSentence,477,0,filler,106,5,to stay anymore.,866,False,The teenagers at the beach party that had been organized by the school apparently wanted to stay anymore.
# The lines below this comment are in groups of 2.
# The formats of the lines in each of these groups are as follows:
#
# Line 1:
#     Col. 1: Time results were received.
#     Col. 2: MD5 hash of participant's IP address.
#     Col. 3: Controller name.
#     Col. 4: Item number.
#     Col. 5: Element number.
#     Col. 6: Type.
#     Col. 7: Group.
#     Col. 8: Question (NULL if none).
#     Col. 9: Answer.
#     Col. 10: Whether or not answer was correct (NULL if N/A).
#     Col. 11: Time taken to answer.
# Line 2:
#     Col. 1: Time results were received.
#     Col. 2: MD5 hash of participant's IP address.
#     Col. 3: Controller name.
#     Col. 4: Item number.
#     Col. 5: Element number.
#     Col. 6: Type.
#     Col. 7: Group.
#     Col. 8: Word number.
#     Col. 9: Word.
#     Col. 10: Reading time.
#     Col. 11: Newline?
#     Col. 12: Sentence (or sentence MD5).
1471965283,e5dcb6ad4a75de404163347b990a8840,Question,477,1,filler,106,How acceptable did you find the sentence?,1,NULL,1216
1471965283,e5dcb6ad4a75de404163347b990a8840,DashedSentence,393,0,cond-F,45,1,The advertisement,1125,False,The advertisement on the billboards supposedly has sparked a public conversation about morality.
# Columns below this comment are as follows:
# 1. Time results were received.
# 2. MD5 hash of participant's IP address.
# 3. Controller name.
# 4. Item number.
# 5. Element number.
# 6. Type.
# 7. Group.
# 8. Word number.
# 9. Word.
# 10. Reading time.
# 11. Newline?
# 12. Sentence (or sentence MD5).
1471965283,e5dcb6ad4a75de404163347b990a8840,DashedSentence,393,0,cond-F,45,2,on the billboards,682,False,The advertisement on the billboards supposedly has sparked a public conversation about morality.
1471965283,e5dcb6ad4a75de404163347b990a8840,DashedSentence,393,0,cond-F,45,3,supposedly has sparked,913,False,The advertisement on the billboards supposedly has sparked a public conversation about morality.
1471965283,e5dcb6ad4a75de404163347b990a8840,DashedSentence,393,0,cond-F,45,4,a public conversation,685,False,The advertisement on the billboards supposedly has sparked a public conversation about morality.
1471965283,e5dcb6ad4a75de404163347b990a8840,DashedSentence,393,0,cond-F,45,5,about morality.,527,False,The advertisement on the billboards supposedly has sparked a public conversation about morality.
# The lines below this comment are in groups of 2.
# The formats of the lines in each of these groups are as follows:
#
# Line 1:
#     Col. 1: Time results were received.
#     Col. 2: MD5 hash of participant's IP address.
#     Col. 3: Controller name.
#     Col. 4: Item number.
#     Col. 5: Element number.
#     Col. 6: Type.
#     Col. 7: Group.
#     Col. 8: Question (NULL if none).
#     Col. 9: Answer.
#     Col. 10: Whether or not answer was correct (NULL if N/A).
#     Col. 11: Time taken to answer.
# Line 2:
#     Col. 1: Time results were received.
#     Col. 2: MD5 hash of participant's IP address.
#     Col. 3: Controller name.
#     Col. 4: Item number.
#     Col. 5: Element number.
#     Col. 6: Type.
#     Col. 7: Group.
#     Col. 8: Word number.
#     Col. 9: Word.
#     Col. 10: Reading time.
#     Col. 11: Newline?
#     Col. 12: Sentence (or sentence MD5).
1471965283,e5dcb6ad4a75de404163347b990a8840,Question,393,1,cond-F,45,How acceptable did you find the sentence?,5,NULL,1386
1471965283,e5dcb6ad4a75de404163347b990a8840,DashedSentence,426,0,filler,55,1,The gates,804,False,The gates that lead to the pasture supposedly originate from a chateau outside of Paris.
# Columns below this comment are as follows:
# 1. Time results were received.
# 2. MD5 hash of participant's IP address.
# 3. Controller name.
# 4. Item number.
# 5. Element number.
# 6. Type.
# 7. Group.
# 8. Word number.
# 9. Word.
# 10. Reading time.
# 11. Newline?
# 12. Sentence (or sentence MD5).
1471965283,e5dcb6ad4a75de404163347b990a8840,DashedSentence,426,0,filler,55,2,that lead to the pasture,1102,False,The gates that lead to the pasture supposedly originate from a chateau outside of Paris.
1471965283,e5dcb6ad4a75de404163347b990a8840,DashedSentence,426,0,filler,55,3,supposedly originate,982,False,The gates that lead to the pasture supposedly originate from a chateau outside of Paris.
1471965283,e5dcb6ad4a75de404163347b990a8840,DashedSentence,426,0,filler,55,4,from a chateau,908,False,The gates that lead to the pasture supposedly originate from a chateau outside of Paris.
1471965283,e5dcb6ad4a75de404163347b990a8840,DashedSentence,426,0,filler,55,5,outside of Paris.,745,False,The gates that lead to the pasture supposedly originate from a chateau outside of Paris.
# The lines below this comment are in groups of 2.
# The formats of the lines in each of these groups are as follows:
#
# Line 1:
#     Col. 1: Time results were received.
#     Col. 2: MD5 hash of participant's IP address.
#     Col. 3: Controller name.
#     Col. 4: Item number.
#     Col. 5: Element number.
#     Col. 6: Type.
#     Col. 7: Group.
#     Col. 8: Question (NULL if none).
#     Col. 9: Answer.
#     Col. 10: Whether or not answer was correct (NULL if N/A).
#     Col. 11: Time taken to answer.
# Line 2:
#     Col. 1: Time results were received.
#     Col. 2: MD5 hash of participant's IP address.
#     Col. 3: Controller name.
#     Col. 4: Item number.
#     Col. 5: Element number.
#     Col. 6: Type.
#     Col. 7: Group.
#     Col. 8: Word number.
#     Col. 9: Word.
#     Col. 10: Reading time.
#     Col. 11: Newline?
#     Col. 12: Sentence (or sentence MD5).
1471965283,e5dcb6ad4a75de404163347b990a8840,Question,426,1,filler,55,How acceptable did you find the sentence?,7,NULL,846
1471965283,e5dcb6ad4a75de404163347b990a8840,DashedSentence,265,0,cond-F,29,1,The runner,566,False,The runner behind the cyclists always trips on the curb leading up to the park entrance.
# Columns below this comment are as follows:
# 1. Time results were received.
# 2. MD5 hash of participant's IP address.
# 3. Controller name.
# 4. Item number.
# 5. Element number.
# 6. Type.
# 7. Group.
# 8. Word number.
# 9. Word.
# 10. Reading time.
# 11. Newline?
# 12. Sentence (or sentence MD5).
1471965283,e5dcb6ad4a75de404163347b990a8840,DashedSentence,265,0,cond-F,29,2,behind the cyclists,923,False,The runner behind the cyclists always trips on the curb leading up to the park entrance.
1471965283,e5dcb6ad4a75de404163347b990a8840,DashedSentence,265,0,cond-F,29,3,always trips,694,False,The runner behind the cyclists always trips on the curb leading up to the park entrance.
1471965283,e5dcb6ad4a75de404163347b990a8840,DashedSentence,265,0,cond-F,29,4,on the curb,815,False,The runner behind the cyclists always trips on the curb leading up to the park entrance.
1471965283,e5dcb6ad4a75de404163347b990a8840,DashedSentence,265,0,cond-F,29,5,leading up to the park entrance.,1630,False,The runner behind the cyclists always trips on the curb leading up to the park entrance.
# The lines below this comment are in groups of 2.
# The formats of the lines in each of these groups are as follows:
#
# Line 1:
#     Col. 1: Time results were received.
#     Col. 2: MD5 hash of participant's IP address.
#     Col. 3: Controller name.
#     Col. 4: Item number.
#     Col. 5: Element number.
#     Col. 6: Type.
#     Col. 7: Group.
#     Col. 8: Question (NULL if none).
#     Col. 9: Answer.
#     Col. 10: Whether or not answer was correct (NULL if N/A).
#     Col. 11: Time taken to answer.
# Line 2:
#     Col. 1: Time results were received.
#     Col. 2: MD5 hash of participant's IP address.
#     Col. 3: Controller name.
#     Col. 4: Item number.
#     Col. 5: Element number.
#     Col. 6: Type.
#     Col. 7: Group.
#     Col. 8: Word number.
#     Col. 9: Word.
#     Col. 10: Reading time.
#     Col. 11: Newline?
#     Col. 12: Sentence (or sentence MD5).
1471965283,e5dcb6ad4a75de404163347b990a8840,Question,265,1,cond-F,29,How acceptable did you find the sentence?,4,NULL,2309
1471965283,e5dcb6ad4a75de404163347b990a8840,DashedSentence,488,0,filler,117,1,The actress,404,False,The actress apparently expresses himself with large gestures that baffled the crowd in the play's opening.
# Columns below this comment are as follows:
# 1. Time results were received.
# 2. MD5 hash of participant's IP address.
# 3. Controller name.
# 4. Item number.
# 5. Element number.
# 6. Type.
# 7. Group.
# 8. Word number.
# 9. Word.
# 10. Reading time.
# 11. Newline?
# 12. Sentence (or sentence MD5).
1471965283,e5dcb6ad4a75de404163347b990a8840,DashedSentence,488,0,filler,117,2,apparently expresses himself,555,False,The actress apparently expresses himself with large gestures that baffled the crowd in the play's opening.
1471965283,e5dcb6ad4a75de404163347b990a8840,DashedSentence,488,0,filler,117,3,with large gestures,542,False,The actress apparently expresses himself with large gestures that baffled the crowd in the play's opening.
1471965283,e5dcb6ad4a75de404163347b990a8840,DashedSentence,488,0,filler,117,4,that baffled the crowd,555,False,The actress apparently expresses himself with large gestures that baffled the crowd in the play's opening.
1471965283,e5dcb6ad4a75de404163347b990a8840,DashedSentence,488,0,filler,117,5,in the play's opening.,520,False,The actress apparently expresses himself with large gestures that baffled the crowd in the play's opening.
# The lines below this comment are in groups of 2.
# The formats of the lines in each of these groups are as follows:
#
# Line 1:
#     Col. 1: Time results were received.
#     Col. 2: MD5 hash of participant's IP address.
#     Col. 3: Controller name.
#     Col. 4: Item number.
#     Col. 5: Element number.
#     Col. 6: Type.
#     Col. 7: Group.
#     Col. 8: Question (NULL if none).
#     Col. 9: Answer.
#     Col. 10: Whether or not answer was correct (NULL if N/A).
#     Col. 11: Time taken to answer.
# Line 2:
#     Col. 1: Time results were received.
#     Col. 2: MD5 hash of participant's IP address.
#     Col. 3: Controller name.
#     Col. 4: Item number.
#     Col. 5: Element number.
#     Col. 6: Type.
#     Col. 7: Group.
#     Col. 8: Word number.
#     Col. 9: Word.
#     Col. 10: Reading time.
#     Col. 11: Newline?
#     Col. 12: Sentence (or sentence MD5).
1471965283,e5dcb6ad4a75de404163347b990a8840,Question,488,1,filler,117,How acceptable did you find the sentence?,6,NULL,1196
1471965283,e5dcb6ad4a75de404163347b990a8840,DashedSentence,472,0,filler,101,1,The hockey fans,619,False,The hockey fans apparently any longer wanted to go the game after buying the playoff ticket on a whim.
# Columns below this comment are as follows:
# 1. Time results were received.
# 2. MD5 hash of participant's IP address.
# 3. Controller name.
# 4. Item number.
# 5. Element number.
# 6. Type.
# 7. Group.
# 8. Word number.
# 9. Word.
# 10. Reading time.
# 11. Newline?
# 12. Sentence (or sentence MD5).
1471965283,e5dcb6ad4a75de404163347b990a8840,DashedSentence,472,0,filler,101,2,apparently any longer wanted,778,False,The hockey fans apparently any longer wanted to go the game after buying the playoff ticket on a whim.
1471965283,e5dcb6ad4a75de404163347b990a8840,DashedSentence,472,0,filler,101,3,to go the game,663,False,The hockey fans apparently any longer wanted to go the game after buying the playoff ticket on a whim.
1471965283,e5dcb6ad4a75de404163347b990a8840,DashedSentence,472,0,filler,101,4,after buying the playoff ticket,585,False,The hockey fans apparently any longer wanted to go the game after buying the playoff ticket on a whim.
1471965283,e5dcb6ad4a75de404163347b990a8840,DashedSentence,472,0,filler,101,5,on a whim.,648,False,The hockey fans apparently any longer wanted to go the game after buying the playoff ticket on a whim.
# The lines below this comment are in groups of 2.
# The formats of the lines in each of these groups are as follows:
#
# Line 1:
#     Col. 1: Time results were received.
#     Col. 2: MD5 hash of participant's IP address.
#     Col. 3: Controller name.
#     Col. 4: Item number.
#     Col. 5: Element number.
#     Col. 6: Type.
#     Col. 7: Group.
#     Col. 8: Question (NULL if none).
#     Col. 9: Answer.
#     Col. 10: Whether or not answer was correct (NULL if N/A).
#     Col. 11: Time taken to answer.
# Line 2:
#     Col. 1: Time results were received.
#     Col. 2: MD5 hash of participant's IP address.
#     Col. 3: Controller name.
#     Col. 4: Item number.
#     Col. 5: Element number.
#     Col. 6: Type.
#     Col. 7: Group.
#     Col. 8: Word number.
#     Col. 9: Word.
#     Col. 10: Reading time.
#     Col. 11: Newline?
#     Col. 12: Sentence (or sentence MD5).
1471965283,e5dcb6ad4a75de404163347b990a8840,Question,472,1,filler,101,How acceptable did you find the sentence?,2,NULL,867
1471965283,e5dcb6ad4a75de404163347b990a8840,DashedSentence,55,0,cond-D,3,1,The dog,515,False,The dog that puked next to the cats apparently were sick for two days after eating a stick of butter.
# Columns below this comment are as follows:
# 1. Time results were received.
# 2. MD5 hash of participant's IP address.
# 3. Controller name.
# 4. Item number.
# 5. Element number.
# 6. Type.
# 7. Group.
# 8. Word number.
# 9. Word.
# 10. Reading time.
# 11. Newline?
# 12. Sentence (or sentence MD5).
1471965283,e5dcb6ad4a75de404163347b990a8840,DashedSentence,55,0,cond-D,3,2,that puked next to the cats,959,False,The dog that puked next to the cats apparently were sick for two days after eating a stick of butter.
1471965283,e5dcb6ad4a75de404163347b990a8840,DashedSentence,55,0,cond-D,3,3,apparently were sick,800,False,The dog that puked next to the cats apparently were sick for two days after eating a stick of butter.
1471965283,e5dcb6ad4a75de404163347b990a8840,DashedSentence,55,0,cond-D,3,4,for two days,818,False,The dog that puked next to the cats apparently were sick for two days after eating a stick of butter.
1471965283,e5dcb6ad4a75de404163347b990a8840,DashedSentence,55,0,cond-D,3,5,after eating a stick of butter.,729,False,The dog that puked next to the cats apparently were sick for two days after eating a stick of butter.
# The lines below this comment are in groups of 2.
# The formats of the lines in each of these groups are as follows:
#
# Line 1:
#     Col. 1: Time results were received.
#     Col. 2: MD5 hash of participant's IP address.
#     Col. 3: Controller name.
#     Col. 4: Item number.
#     Col. 5: Element number.
#     Col. 6: Type.
#     Col. 7: Group.
#     Col. 8: Question (NULL if none).
#     Col. 9: Answer.
#     Col. 10: Whether or not answer was correct (NULL if N/A).
#     Col. 11: Time taken to answer.
# Line 2:
#     Col. 1: Time results were received.
#     Col. 2: MD5 hash of participant's IP address.
#     Col. 3: Controller name.
#     Col. 4: Item number.
#     Col. 5: Element number.
#     Col. 6: Type.
#     Col. 7: Group.
#     Col. 8: Word number.
#     Col. 9: Word.
#     Col. 10: Reading time.
#     Col. 11: Newline?
#     Col. 12: Sentence (or sentence MD5).
1471965283,e5dcb6ad4a75de404163347b990a8840,Question,55,1,cond-D,3,How acceptable did you find the sentence?,1,NULL,638
1471965283,e5dcb6ad4a75de404163347b990a8840,DashedSentence,434,0,filler,63,1,The receptionist,608,False,The receptionist that took the message from the client apparently couldn't find anywhere to put the phone.
# Columns below this comment are as follows:
# 1. Time results were received.
# 2. MD5 hash of participant's IP address.
# 3. Controller name.
# 4. Item number.
# 5. Element number.
# 6. Type.
# 7. Group.
# 8. Word number.
# 9. Word.
# 10. Reading time.
# 11. Newline?
# 12. Sentence (or sentence MD5).
1471965283,e5dcb6ad4a75de404163347b990a8840,DashedSentence,434,0,filler,63,2,that took the message,602,False,The receptionist that took the message from the client apparently couldn't find anywhere to put the phone.
1471965283,e5dcb6ad4a75de404163347b990a8840,DashedSentence,434,0,filler,63,3,from the client,469,False,The receptionist that took the message from the client apparently couldn't find anywhere to put the phone.
1471965283,e5dcb6ad4a75de404163347b990a8840,DashedSentence,434,0,filler,63,4,apparently couldn't find anywhere,938,False,The receptionist that took the message from the client apparently couldn't find anywhere to put the phone.
1471965283,e5dcb6ad4a75de404163347b990a8840,DashedSentence,434,0,filler,63,5,to put the phone.,870,False,The receptionist that took the message from the client apparently couldn't find anywhere to put the phone.
# The lines below this comment are in groups of 2.
# The formats of the lines in each of these groups are as follows:
#
# Line 1:
#     Col. 1: Time results were received.
#     Col. 2: MD5 hash of participant's IP address.
#     Col. 3: Controller name.
#     Col. 4: Item number.
#     Col. 5: Element number.
#     Col. 6: Type.
#     Col. 7: Group.
#     Col. 8: Question (NULL if none).
#     Col. 9: Answer.
#     Col. 10: Whether or not answer was correct (NULL if N/A).
#     Col. 11: Time taken to answer.
# Line 2:
#     Col. 1: Time results were received.
#     Col. 2: MD5 hash of participant's IP address.
#     Col. 3: Controller name.
#     Col. 4: Item number.
#     Col. 5: Element number.
#     Col. 6: Type.
#     Col. 7: Group.
#     Col. 8: Word number.
#     Col. 9: Word.
#     Col. 10: Reading time.
#     Col. 11: Newline?
#     Col. 12: Sentence (or sentence MD5).
1471965283,e5dcb6ad4a75de404163347b990a8840,Question,434,1,filler,63,How acceptable did you find the sentence?,7,NULL,1261
1471965283,e5dcb6ad4a75de404163347b990a8840,DashedSentence,174,0,cond-C,18,1,The mechanic,1093,False,The mechanic that slid under the car apparently work overtime in the winter to take vacations.
# Columns below this comment are as follows:
# 1. Time results were received.
# 2. MD5 hash of participant's IP address.
# 3. Controller name.
# 4. Item number.
# 5. Element number.
# 6. Type.
# 7. Group.
# 8. Word number.
# 9. Word.
# 10. Reading time.
# 11. Newline?
# 12. Sentence (or sentence MD5).
